"subject","X","finishTime","screen_width","window_height","window_width","curId","curTime","counterBalance_order","userAgent","screen_height","circle_key","tri_key","blue_key","red_key","color","shape","rt","stim_color","transition","response_location","trial","cue","stim_shape","rci","error","response_key","cti","task_attempt","error_trim","transcode"
"A13KMWHXNI4C12",4209,417953,1920,708,1853,"3BGYGHDBBY4UPJ7R10P5G4XLP6722V","22/10/2018@15:29:12","rvts_first","Mozilla/5.0 (Windows NT 10.0; Win64; x64; rv:62.0) Gecko/20100101 Firefox/62.0",1080,68,70,74,75,"top_right","top_left",1913,"blue","Switch","left",2,"Shape","circle",100,0,"circle_key",1000,"shape",0,1
"A13KMWHXNI4C12",4213,417953,1920,708,1853,"3BGYGHDBBY4UPJ7R10P5G4XLP6722V","22/10/2018@15:29:12","rvts_first","Mozilla/5.0 (Windows NT 10.0; Win64; x64; rv:62.0) Gecko/20100101 Firefox/62.0",1080,68,70,74,75,"top_right","top_left",909,"blue","Repeat","left",6,"Shape","circle",100,0,"circle_key",1000,"shape",0,0
"A13KMWHXNI4C12",4214,417953,1920,708,1853,"3BGYGHDBBY4UPJ7R10P5G4XLP6722V","22/10/2018@15:29:12","rvts_first","Mozilla/5.0 (Windows NT 10.0; Win64; x64; rv:62.0) Gecko/20100101 Firefox/62.0",1080,68,70,74,75,"top_right","top_left",1011,"blue","Switch","right",7,"Color","circle",100,0,"blue_key",1000,"color",0,1
"A13KMWHXNI4C12",4215,417953,1920,708,1853,"3BGYGHDBBY4UPJ7R10P5G4XLP6722V","22/10/2018@15:29:12","rvts_first","Mozilla/5.0 (Windows NT 10.0; Win64; x64; rv:62.0) Gecko/20100101 Firefox/62.0",1080,68,70,74,75,"top_right","top_left",874,"red","Repeat","right",8,"Color","circle",100,0,"red_key",1000,"color",0,0
"A13KMWHXNI4C12",4216,417953,1920,708,1853,"3BGYGHDBBY4UPJ7R10P5G4XLP6722V","22/10/2018@15:29:12","rvts_first","Mozilla/5.0 (Windows NT 10.0; Win64; x64; rv:62.0) Gecko/20100101 Firefox/62.0",1080,68,70,74,75,"top_right","top_left",1165,"red","Switch","left",9,"Shape","triangle",1000,0,"tri_key",100,"shape",0,1
"A13KMWHXNI4C12",4217,417953,1920,708,1853,"3BGYGHDBBY4UPJ7R10P5G4XLP6722V","22/10/2018@15:29:12","rvts_first","Mozilla/5.0 (Windows NT 10.0; Win64; x64; rv:62.0) Gecko/20100101 Firefox/62.0",1080,68,70,74,75,"top_right","top_left",1316,"red","Repeat","left",10,"Shape","triangle",1000,0,"tri_key",100,"shape",0,0
"A13KMWHXNI4C12",4218,417953,1920,708,1853,"3BGYGHDBBY4UPJ7R10P5G4XLP6722V","22/10/2018@15:29:12","rvts_first","Mozilla/5.0 (Windows NT 10.0; Win64; x64; rv:62.0) Gecko/20100101 Firefox/62.0",1080,68,70,74,75,"top_right","top_left",853,"blue","Repeat","left",11,"Shape","circle",1000,0,"circle_key",100,"shape",0,0
"A13KMWHXNI4C12",4219,417953,1920,708,1853,"3BGYGHDBBY4UPJ7R10P5G4XLP6722V","22/10/2018@15:29:12","rvts_first","Mozilla/5.0 (Windows NT 10.0; Win64; x64; rv:62.0) Gecko/20100101 Firefox/62.0",1080,68,70,74,75,"top_right","top_left",917,"red","Repeat","left",12,"Shape","triangle",100,0,"tri_key",1000,"shape",0,0
"A13KMWHXNI4C12",4222,417953,1920,708,1853,"3BGYGHDBBY4UPJ7R10P5G4XLP6722V","22/10/2018@15:29:12","rvts_first","Mozilla/5.0 (Windows NT 10.0; Win64; x64; rv:62.0) Gecko/20100101 Firefox/62.0",1080,68,70,74,75,"top_right","top_left",867,"blue","Repeat","right",15,"Color","triangle",1000,0,"blue_key",100,"color",0,0
"A13KMWHXNI4C12",4223,417953,1920,708,1853,"3BGYGHDBBY4UPJ7R10P5G4XLP6722V","22/10/2018@15:29:12","rvts_first","Mozilla/5.0 (Windows NT 10.0; Win64; x64; rv:62.0) Gecko/20100101 Firefox/62.0",1080,68,70,74,75,"top_right","top_left",880,"red","Switch","left",16,"Shape","circle",1000,0,"circle_key",100,"shape",0,1
"A13KMWHXNI4C12",4224,417953,1920,708,1853,"3BGYGHDBBY4UPJ7R10P5G4XLP6722V","22/10/2018@15:29:12","rvts_first","Mozilla/5.0 (Windows NT 10.0; Win64; x64; rv:62.0) Gecko/20100101 Firefox/62.0",1080,68,70,74,75,"top_right","top_left",1278,"blue","Repeat","left",17,"Shape","triangle",1000,0,"tri_key",100,"shape",0,0
"A13KMWHXNI4C12",4225,417953,1920,708,1853,"3BGYGHDBBY4UPJ7R10P5G4XLP6722V","22/10/2018@15:29:12","rvts_first","Mozilla/5.0 (Windows NT 10.0; Win64; x64; rv:62.0) Gecko/20100101 Firefox/62.0",1080,68,70,74,75,"top_right","top_left",698,"blue","Repeat","left",18,"Shape","circle",1000,0,"circle_key",100,"shape",0,0
"A13KMWHXNI4C12",4226,417953,1920,708,1853,"3BGYGHDBBY4UPJ7R10P5G4XLP6722V","22/10/2018@15:29:12","rvts_first","Mozilla/5.0 (Windows NT 10.0; Win64; x64; rv:62.0) Gecko/20100101 Firefox/62.0",1080,68,70,74,75,"top_right","top_left",943,"red","Switch","right",19,"Color","circle",100,0,"red_key",1000,"color",0,1
"A13KMWHXNI4C12",4227,417953,1920,708,1853,"3BGYGHDBBY4UPJ7R10P5G4XLP6722V","22/10/2018@15:29:12","rvts_first","Mozilla/5.0 (Windows NT 10.0; Win64; x64; rv:62.0) Gecko/20100101 Firefox/62.0",1080,68,70,74,75,"top_right","top_left",665,"blue","Repeat","right",20,"Color","circle",100,0,"blue_key",1000,"color",0,0
"A13KMWHXNI4C12",4231,417953,1920,708,1853,"3BGYGHDBBY4UPJ7R10P5G4XLP6722V","22/10/2018@15:29:12","rvts_first","Mozilla/5.0 (Windows NT 10.0; Win64; x64; rv:62.0) Gecko/20100101 Firefox/62.0",1080,68,70,74,75,"top_right","top_left",1923,"red","Repeat","right",24,"Color","circle",1000,0,"red_key",100,"color",0,0
"A13KMWHXNI4C12",4232,417953,1920,708,1853,"3BGYGHDBBY4UPJ7R10P5G4XLP6722V","22/10/2018@15:29:12","rvts_first","Mozilla/5.0 (Windows NT 10.0; Win64; x64; rv:62.0) Gecko/20100101 Firefox/62.0",1080,68,70,74,75,"top_right","top_left",1006,"red","Repeat","right",25,"Color","triangle",100,0,"red_key",1000,"color",0,0
"A13KMWHXNI4C12",4233,417953,1920,708,1853,"3BGYGHDBBY4UPJ7R10P5G4XLP6722V","22/10/2018@15:29:12","rvts_first","Mozilla/5.0 (Windows NT 10.0; Win64; x64; rv:62.0) Gecko/20100101 Firefox/62.0",1080,68,70,74,75,"top_right","top_left",2138,"red","Repeat","right",26,"Color","triangle",100,0,"red_key",1000,"color",0,0
"A13KMWHXNI4C12",4234,417953,1920,708,1853,"3BGYGHDBBY4UPJ7R10P5G4XLP6722V","22/10/2018@15:29:12","rvts_first","Mozilla/5.0 (Windows NT 10.0; Win64; x64; rv:62.0) Gecko/20100101 Firefox/62.0",1080,68,70,74,75,"top_right","top_left",2959,"red","Switch","left",27,"Shape","triangle",1000,0,"tri_key",100,"shape",0,1
"A13KMWHXNI4C12",4235,417953,1920,708,1853,"3BGYGHDBBY4UPJ7R10P5G4XLP6722V","22/10/2018@15:29:12","rvts_first","Mozilla/5.0 (Windows NT 10.0; Win64; x64; rv:62.0) Gecko/20100101 Firefox/62.0",1080,68,70,74,75,"top_right","top_left",3675,"blue","Repeat","left",28,"Shape","triangle",100,0,"tri_key",1000,"shape",0,0
"A13KMWHXNI4C12",4238,417953,1920,708,1853,"3BGYGHDBBY4UPJ7R10P5G4XLP6722V","22/10/2018@15:29:12","rvts_first","Mozilla/5.0 (Windows NT 10.0; Win64; x64; rv:62.0) Gecko/20100101 Firefox/62.0",1080,68,70,74,75,"top_right","top_left",1148,"blue","Repeat","left",31,"Shape","circle",1000,0,"circle_key",100,"shape",0,0
"A13KMWHXNI4C12",4239,417953,1920,708,1853,"3BGYGHDBBY4UPJ7R10P5G4XLP6722V","22/10/2018@15:29:12","rvts_first","Mozilla/5.0 (Windows NT 10.0; Win64; x64; rv:62.0) Gecko/20100101 Firefox/62.0",1080,68,70,74,75,"top_right","top_left",718,"red","Switch","right",32,"Color","triangle",100,0,"red_key",1000,"color",0,1
"A13KMWHXNI4C12",4240,417953,1920,708,1853,"3BGYGHDBBY4UPJ7R10P5G4XLP6722V","22/10/2018@15:29:12","rvts_first","Mozilla/5.0 (Windows NT 10.0; Win64; x64; rv:62.0) Gecko/20100101 Firefox/62.0",1080,68,70,74,75,"top_right","top_left",1915,"blue","Switch","left",33,"Shape","triangle",100,0,"tri_key",1000,"shape",0,1
"A13KMWHXNI4C12",4243,417953,1920,708,1853,"3BGYGHDBBY4UPJ7R10P5G4XLP6722V","22/10/2018@15:29:12","rvts_first","Mozilla/5.0 (Windows NT 10.0; Win64; x64; rv:62.0) Gecko/20100101 Firefox/62.0",1080,68,70,74,75,"top_right","top_left",752,"blue","Switch","left",36,"Shape","triangle",100,0,"tri_key",1000,"shape",0,1
"A13KMWHXNI4C12",4244,417953,1920,708,1853,"3BGYGHDBBY4UPJ7R10P5G4XLP6722V","22/10/2018@15:29:12","rvts_first","Mozilla/5.0 (Windows NT 10.0; Win64; x64; rv:62.0) Gecko/20100101 Firefox/62.0",1080,68,70,74,75,"top_right","top_left",1425,"red","Switch","right",37,"Color","circle",100,0,"red_key",1000,"color",0,1
"A13KMWHXNI4C12",4245,417953,1920,708,1853,"3BGYGHDBBY4UPJ7R10P5G4XLP6722V","22/10/2018@15:29:12","rvts_first","Mozilla/5.0 (Windows NT 10.0; Win64; x64; rv:62.0) Gecko/20100101 Firefox/62.0",1080,68,70,74,75,"top_right","top_left",1116,"red","Repeat","right",38,"Color","triangle",100,0,"red_key",1000,"color",0,0
"A13KMWHXNI4C12",4246,417953,1920,708,1853,"3BGYGHDBBY4UPJ7R10P5G4XLP6722V","22/10/2018@15:29:12","rvts_first","Mozilla/5.0 (Windows NT 10.0; Win64; x64; rv:62.0) Gecko/20100101 Firefox/62.0",1080,68,70,74,75,"top_right","top_left",1954,"red","Switch","left",39,"Shape","circle",1000,0,"circle_key",100,"shape",0,1
"A13KMWHXNI4C12",4247,417953,1920,708,1853,"3BGYGHDBBY4UPJ7R10P5G4XLP6722V","22/10/2018@15:29:12","rvts_first","Mozilla/5.0 (Windows NT 10.0; Win64; x64; rv:62.0) Gecko/20100101 Firefox/62.0",1080,68,70,74,75,"top_right","top_left",926,"blue","Repeat","left",40,"Shape","triangle",100,0,"tri_key",1000,"shape",0,0
"A13KMWHXNI4C12",4248,417953,1920,708,1853,"3BGYGHDBBY4UPJ7R10P5G4XLP6722V","22/10/2018@15:29:12","rvts_first","Mozilla/5.0 (Windows NT 10.0; Win64; x64; rv:62.0) Gecko/20100101 Firefox/62.0",1080,68,70,74,75,"top_right","top_left",1184,"blue","Switch","right",41,"Color","circle",1000,0,"blue_key",100,"color",0,1
"A13KMWHXNI4C12",4249,417953,1920,708,1853,"3BGYGHDBBY4UPJ7R10P5G4XLP6722V","22/10/2018@15:29:12","rvts_first","Mozilla/5.0 (Windows NT 10.0; Win64; x64; rv:62.0) Gecko/20100101 Firefox/62.0",1080,68,70,74,75,"top_right","top_left",1799,"blue","Switch","left",42,"Shape","triangle",1000,0,"tri_key",100,"shape",0,1
"A13KMWHXNI4C12",4250,417953,1920,708,1853,"3BGYGHDBBY4UPJ7R10P5G4XLP6722V","22/10/2018@15:29:12","rvts_first","Mozilla/5.0 (Windows NT 10.0; Win64; x64; rv:62.0) Gecko/20100101 Firefox/62.0",1080,68,70,74,75,"top_right","top_left",817,"blue","Repeat","left",43,"Shape","triangle",1000,0,"tri_key",100,"shape",0,0
"A13KMWHXNI4C12",4251,417953,1920,708,1853,"3BGYGHDBBY4UPJ7R10P5G4XLP6722V","22/10/2018@15:29:12","rvts_first","Mozilla/5.0 (Windows NT 10.0; Win64; x64; rv:62.0) Gecko/20100101 Firefox/62.0",1080,68,70,74,75,"top_right","top_left",1316,"red","Repeat","left",44,"Shape","circle",100,0,"circle_key",1000,"shape",0,0
"A13KMWHXNI4C12",4252,417953,1920,708,1853,"3BGYGHDBBY4UPJ7R10P5G4XLP6722V","22/10/2018@15:29:12","rvts_first","Mozilla/5.0 (Windows NT 10.0; Win64; x64; rv:62.0) Gecko/20100101 Firefox/62.0",1080,68,70,74,75,"top_right","top_left",643,"red","Repeat","left",45,"Shape","triangle",1000,0,"tri_key",100,"shape",0,0
"A13KMWHXNI4C12",4253,417953,1920,708,1853,"3BGYGHDBBY4UPJ7R10P5G4XLP6722V","22/10/2018@15:29:12","rvts_first","Mozilla/5.0 (Windows NT 10.0; Win64; x64; rv:62.0) Gecko/20100101 Firefox/62.0",1080,68,70,74,75,"top_right","top_left",932,"blue","Switch","right",46,"Color","triangle",1000,0,"blue_key",100,"color",0,1
"A13KMWHXNI4C12",4254,417953,1920,708,1853,"3BGYGHDBBY4UPJ7R10P5G4XLP6722V","22/10/2018@15:29:12","rvts_first","Mozilla/5.0 (Windows NT 10.0; Win64; x64; rv:62.0) Gecko/20100101 Firefox/62.0",1080,68,70,74,75,"top_right","top_left",3088,"red","Switch","left",47,"Shape","circle",1000,0,"circle_key",100,"shape",0,1
"A13KMWHXNI4C12",4255,417953,1920,708,1853,"3BGYGHDBBY4UPJ7R10P5G4XLP6722V","22/10/2018@15:29:12","rvts_first","Mozilla/5.0 (Windows NT 10.0; Win64; x64; rv:62.0) Gecko/20100101 Firefox/62.0",1080,68,70,74,75,"top_right","top_left",1322,"blue","Repeat","left",48,"Shape","triangle",1000,0,"tri_key",100,"shape",0,0
"A13KMWHXNI4C12",4256,417953,1920,708,1853,"3BGYGHDBBY4UPJ7R10P5G4XLP6722V","22/10/2018@15:29:12","rvts_first","Mozilla/5.0 (Windows NT 10.0; Win64; x64; rv:62.0) Gecko/20100101 Firefox/62.0",1080,68,70,74,75,"top_right","top_left",1020,"red","Switch","right",49,"Color","circle",100,0,"red_key",1000,"color",0,1
"A13KMWHXNI4C12",4257,417953,1920,708,1853,"3BGYGHDBBY4UPJ7R10P5G4XLP6722V","22/10/2018@15:29:12","rvts_first","Mozilla/5.0 (Windows NT 10.0; Win64; x64; rv:62.0) Gecko/20100101 Firefox/62.0",1080,68,70,74,75,"top_right","top_left",697,"red","Repeat","right",50,"Color","circle",100,0,"red_key",1000,"color",0,0
"A13KMWHXNI4C12",4258,417953,1920,708,1853,"3BGYGHDBBY4UPJ7R10P5G4XLP6722V","22/10/2018@15:29:12","rvts_first","Mozilla/5.0 (Windows NT 10.0; Win64; x64; rv:62.0) Gecko/20100101 Firefox/62.0",1080,68,70,74,75,"top_right","top_left",1496,"blue","Switch","left",51,"Shape","triangle",1000,0,"tri_key",100,"shape",0,1
"A13KMWHXNI4C12",4259,417953,1920,708,1853,"3BGYGHDBBY4UPJ7R10P5G4XLP6722V","22/10/2018@15:29:12","rvts_first","Mozilla/5.0 (Windows NT 10.0; Win64; x64; rv:62.0) Gecko/20100101 Firefox/62.0",1080,68,70,74,75,"top_right","top_left",963,"blue","Repeat","left",52,"Shape","circle",1000,0,"circle_key",100,"shape",0,0
"A13KMWHXNI4C12",4262,417953,1920,708,1853,"3BGYGHDBBY4UPJ7R10P5G4XLP6722V","22/10/2018@15:29:12","rvts_first","Mozilla/5.0 (Windows NT 10.0; Win64; x64; rv:62.0) Gecko/20100101 Firefox/62.0",1080,68,70,74,75,"top_right","top_left",2573,"blue","Switch","right",55,"Color","circle",1000,0,"blue_key",100,"color",0,1
"A13KMWHXNI4C12",4263,417953,1920,708,1853,"3BGYGHDBBY4UPJ7R10P5G4XLP6722V","22/10/2018@15:29:12","rvts_first","Mozilla/5.0 (Windows NT 10.0; Win64; x64; rv:62.0) Gecko/20100101 Firefox/62.0",1080,68,70,74,75,"top_right","top_left",665,"blue","Repeat","right",56,"Color","triangle",1000,0,"blue_key",100,"color",0,0
"A13KMWHXNI4C12",4264,417953,1920,708,1853,"3BGYGHDBBY4UPJ7R10P5G4XLP6722V","22/10/2018@15:29:12","rvts_first","Mozilla/5.0 (Windows NT 10.0; Win64; x64; rv:62.0) Gecko/20100101 Firefox/62.0",1080,68,70,74,75,"top_right","top_left",581,"blue","Repeat","right",57,"Color","triangle",1000,0,"blue_key",100,"color",0,0
"A13KMWHXNI4C12",4265,417953,1920,708,1853,"3BGYGHDBBY4UPJ7R10P5G4XLP6722V","22/10/2018@15:29:12","rvts_first","Mozilla/5.0 (Windows NT 10.0; Win64; x64; rv:62.0) Gecko/20100101 Firefox/62.0",1080,68,70,74,75,"top_right","top_left",1734,"blue","Switch","left",58,"Shape","circle",1000,0,"circle_key",100,"shape",0,1
"A13KMWHXNI4C12",4266,417953,1920,708,1853,"3BGYGHDBBY4UPJ7R10P5G4XLP6722V","22/10/2018@15:29:12","rvts_first","Mozilla/5.0 (Windows NT 10.0; Win64; x64; rv:62.0) Gecko/20100101 Firefox/62.0",1080,68,70,74,75,"top_right","top_left",1076,"blue","Repeat","left",59,"Shape","triangle",100,0,"tri_key",1000,"shape",0,0
"A13KMWHXNI4C12",4267,417953,1920,708,1853,"3BGYGHDBBY4UPJ7R10P5G4XLP6722V","22/10/2018@15:29:12","rvts_first","Mozilla/5.0 (Windows NT 10.0; Win64; x64; rv:62.0) Gecko/20100101 Firefox/62.0",1080,68,70,74,75,"top_right","top_left",672,"red","Switch","right",60,"Color","triangle",100,0,"red_key",1000,"color",0,1
"A13KMWHXNI4C12",4268,417953,1920,708,1853,"3BGYGHDBBY4UPJ7R10P5G4XLP6722V","22/10/2018@15:29:12","rvts_first","Mozilla/5.0 (Windows NT 10.0; Win64; x64; rv:62.0) Gecko/20100101 Firefox/62.0",1080,68,70,74,75,"top_right","top_left",1796,"red","Switch","left",61,"Shape","circle",100,0,"circle_key",1000,"shape",0,1
"A13KMWHXNI4C12",4269,417953,1920,708,1853,"3BGYGHDBBY4UPJ7R10P5G4XLP6722V","22/10/2018@15:29:12","rvts_first","Mozilla/5.0 (Windows NT 10.0; Win64; x64; rv:62.0) Gecko/20100101 Firefox/62.0",1080,68,70,74,75,"top_right","top_left",647,"red","Repeat","left",62,"Shape","circle",1000,0,"circle_key",100,"shape",0,0
"A13KMWHXNI4C12",4270,417953,1920,708,1853,"3BGYGHDBBY4UPJ7R10P5G4XLP6722V","22/10/2018@15:29:12","rvts_first","Mozilla/5.0 (Windows NT 10.0; Win64; x64; rv:62.0) Gecko/20100101 Firefox/62.0",1080,68,70,74,75,"top_right","top_left",649,"red","Repeat","left",63,"Shape","triangle",100,0,"tri_key",1000,"shape",0,0
"A13KMWHXNI4C12",4271,417953,1920,708,1853,"3BGYGHDBBY4UPJ7R10P5G4XLP6722V","22/10/2018@15:29:12","rvts_first","Mozilla/5.0 (Windows NT 10.0; Win64; x64; rv:62.0) Gecko/20100101 Firefox/62.0",1080,68,70,74,75,"top_right","top_left",411,"red","Switch","right",64,"Color","circle",100,0,"red_key",1000,"color",0,1
"A13KMWHXNI4C12",4272,417953,1920,708,1853,"3BGYGHDBBY4UPJ7R10P5G4XLP6722V","22/10/2018@15:29:12","rvts_first","Mozilla/5.0 (Windows NT 10.0; Win64; x64; rv:62.0) Gecko/20100101 Firefox/62.0",1080,68,70,74,75,"top_right","top_left",507,"blue","Repeat","right",65,"Color","circle",100,0,"blue_key",1000,"color",0,0
"A13KMWHXNI4C12",4273,417953,1920,708,1853,"3BGYGHDBBY4UPJ7R10P5G4XLP6722V","22/10/2018@15:29:12","rvts_first","Mozilla/5.0 (Windows NT 10.0; Win64; x64; rv:62.0) Gecko/20100101 Firefox/62.0",1080,68,70,74,75,"top_right","top_left",461,"blue","Switch","left",66,"Shape","circle",100,0,"circle_key",1000,"shape",0,1
"A13KMWHXNI4C12",4274,417953,1920,708,1853,"3BGYGHDBBY4UPJ7R10P5G4XLP6722V","22/10/2018@15:29:12","rvts_first","Mozilla/5.0 (Windows NT 10.0; Win64; x64; rv:62.0) Gecko/20100101 Firefox/62.0",1080,68,70,74,75,"top_right","top_left",677,"red","Repeat","left",67,"Shape","circle",100,0,"circle_key",1000,"shape",0,0
"A13KMWHXNI4C12",4275,417953,1920,708,1853,"3BGYGHDBBY4UPJ7R10P5G4XLP6722V","22/10/2018@15:29:12","rvts_first","Mozilla/5.0 (Windows NT 10.0; Win64; x64; rv:62.0) Gecko/20100101 Firefox/62.0",1080,68,70,74,75,"top_right","top_left",1118,"red","Switch","right",68,"Color","triangle",100,0,"red_key",1000,"color",0,1
"A13KMWHXNI4C12",4276,417953,1920,708,1853,"3BGYGHDBBY4UPJ7R10P5G4XLP6722V","22/10/2018@15:29:12","rvts_first","Mozilla/5.0 (Windows NT 10.0; Win64; x64; rv:62.0) Gecko/20100101 Firefox/62.0",1080,68,70,74,75,"top_right","top_left",1498,"red","Switch","left",69,"Shape","circle",1000,0,"circle_key",100,"shape",0,1
"A13KMWHXNI4C12",4277,417953,1920,708,1853,"3BGYGHDBBY4UPJ7R10P5G4XLP6722V","22/10/2018@15:29:12","rvts_first","Mozilla/5.0 (Windows NT 10.0; Win64; x64; rv:62.0) Gecko/20100101 Firefox/62.0",1080,68,70,74,75,"top_right","top_left",1516,"red","Switch","right",70,"Color","triangle",100,0,"red_key",1000,"color",0,1
"A13KMWHXNI4C12",4279,417953,1920,708,1853,"3BGYGHDBBY4UPJ7R10P5G4XLP6722V","22/10/2018@15:29:12","rvts_first","Mozilla/5.0 (Windows NT 10.0; Win64; x64; rv:62.0) Gecko/20100101 Firefox/62.0",1080,68,70,74,75,"top_right","top_left",1168,"blue","Switch","right",72,"Color","triangle",1000,0,"blue_key",100,"color",0,1
"A13KMWHXNI4C12",4282,417953,1920,708,1853,"3BGYGHDBBY4UPJ7R10P5G4XLP6722V","22/10/2018@15:29:12","rvts_first","Mozilla/5.0 (Windows NT 10.0; Win64; x64; rv:62.0) Gecko/20100101 Firefox/62.0",1080,68,70,74,75,"top_right","top_left",618,"blue","Switch","right",75,"Color","triangle",100,0,"blue_key",1000,"color",0,1
"A13KMWHXNI4C12",4283,417953,1920,708,1853,"3BGYGHDBBY4UPJ7R10P5G4XLP6722V","22/10/2018@15:29:12","rvts_first","Mozilla/5.0 (Windows NT 10.0; Win64; x64; rv:62.0) Gecko/20100101 Firefox/62.0",1080,68,70,74,75,"top_right","top_left",915,"blue","Repeat","right",76,"Color","circle",1000,0,"blue_key",100,"color",0,0
"A13KMWHXNI4C12",4284,417953,1920,708,1853,"3BGYGHDBBY4UPJ7R10P5G4XLP6722V","22/10/2018@15:29:12","rvts_first","Mozilla/5.0 (Windows NT 10.0; Win64; x64; rv:62.0) Gecko/20100101 Firefox/62.0",1080,68,70,74,75,"top_right","top_left",846,"red","Switch","left",77,"Shape","triangle",1000,0,"tri_key",100,"shape",0,1
"A13KMWHXNI4C12",4285,417953,1920,708,1853,"3BGYGHDBBY4UPJ7R10P5G4XLP6722V","22/10/2018@15:29:12","rvts_first","Mozilla/5.0 (Windows NT 10.0; Win64; x64; rv:62.0) Gecko/20100101 Firefox/62.0",1080,68,70,74,75,"top_right","top_left",783,"red","Switch","right",78,"Color","circle",1000,0,"red_key",100,"color",0,1
"A13KMWHXNI4C12",4286,417953,1920,708,1853,"3BGYGHDBBY4UPJ7R10P5G4XLP6722V","22/10/2018@15:29:12","rvts_first","Mozilla/5.0 (Windows NT 10.0; Win64; x64; rv:62.0) Gecko/20100101 Firefox/62.0",1080,68,70,74,75,"top_right","top_left",443,"red","Repeat","right",79,"Color","triangle",100,0,"red_key",1000,"color",0,0
"A13KMWHXNI4C12",4287,417953,1920,708,1853,"3BGYGHDBBY4UPJ7R10P5G4XLP6722V","22/10/2018@15:29:12","rvts_first","Mozilla/5.0 (Windows NT 10.0; Win64; x64; rv:62.0) Gecko/20100101 Firefox/62.0",1080,68,70,74,75,"top_right","top_left",1217,"red","Switch","left",80,"Shape","triangle",1000,0,"tri_key",100,"shape",0,1
"A13KMWHXNI4C12",4288,417953,1920,708,1853,"3BGYGHDBBY4UPJ7R10P5G4XLP6722V","22/10/2018@15:29:12","rvts_first","Mozilla/5.0 (Windows NT 10.0; Win64; x64; rv:62.0) Gecko/20100101 Firefox/62.0",1080,68,70,74,75,"top_right","top_left",1487,"red","Switch","right",81,"Color","triangle",100,0,"red_key",1000,"color",0,1
"A13KMWHXNI4C12",4289,417953,1920,708,1853,"3BGYGHDBBY4UPJ7R10P5G4XLP6722V","22/10/2018@15:29:12","rvts_first","Mozilla/5.0 (Windows NT 10.0; Win64; x64; rv:62.0) Gecko/20100101 Firefox/62.0",1080,68,70,74,75,"top_right","top_left",1126,"blue","Switch","left",82,"Shape","triangle",1000,0,"tri_key",100,"shape",0,1
"A13KMWHXNI4C12",4290,417953,1920,708,1853,"3BGYGHDBBY4UPJ7R10P5G4XLP6722V","22/10/2018@15:29:12","rvts_first","Mozilla/5.0 (Windows NT 10.0; Win64; x64; rv:62.0) Gecko/20100101 Firefox/62.0",1080,68,70,74,75,"top_right","top_left",964,"blue","Switch","right",83,"Color","triangle",100,0,"blue_key",1000,"color",0,1
"A13KMWHXNI4C12",4291,417953,1920,708,1853,"3BGYGHDBBY4UPJ7R10P5G4XLP6722V","22/10/2018@15:29:12","rvts_first","Mozilla/5.0 (Windows NT 10.0; Win64; x64; rv:62.0) Gecko/20100101 Firefox/62.0",1080,68,70,74,75,"top_right","top_left",1021,"blue","Repeat","right",84,"Color","circle",1000,0,"blue_key",100,"color",0,0
"A13KMWHXNI4C12",4292,417953,1920,708,1853,"3BGYGHDBBY4UPJ7R10P5G4XLP6722V","22/10/2018@15:29:12","rvts_first","Mozilla/5.0 (Windows NT 10.0; Win64; x64; rv:62.0) Gecko/20100101 Firefox/62.0",1080,68,70,74,75,"top_right","top_left",1119,"red","Switch","left",85,"Shape","triangle",100,0,"tri_key",1000,"shape",0,1
"A13KMWHXNI4C12",4293,417953,1920,708,1853,"3BGYGHDBBY4UPJ7R10P5G4XLP6722V","22/10/2018@15:29:12","rvts_first","Mozilla/5.0 (Windows NT 10.0; Win64; x64; rv:62.0) Gecko/20100101 Firefox/62.0",1080,68,70,74,75,"top_right","top_left",1984,"red","Repeat","left",86,"Shape","circle",1000,0,"circle_key",100,"shape",0,0
"A13KMWHXNI4C12",4294,417953,1920,708,1853,"3BGYGHDBBY4UPJ7R10P5G4XLP6722V","22/10/2018@15:29:12","rvts_first","Mozilla/5.0 (Windows NT 10.0; Win64; x64; rv:62.0) Gecko/20100101 Firefox/62.0",1080,68,70,74,75,"top_right","top_left",1330,"red","Switch","right",87,"Color","triangle",1000,0,"red_key",100,"color",0,1
"A13KMWHXNI4C12",4295,417953,1920,708,1853,"3BGYGHDBBY4UPJ7R10P5G4XLP6722V","22/10/2018@15:29:12","rvts_first","Mozilla/5.0 (Windows NT 10.0; Win64; x64; rv:62.0) Gecko/20100101 Firefox/62.0",1080,68,70,74,75,"top_right","top_left",2984,"red","Switch","left",88,"Shape","circle",1000,0,"circle_key",100,"shape",0,1
"A13KMWHXNI4C12",4296,417953,1920,708,1853,"3BGYGHDBBY4UPJ7R10P5G4XLP6722V","22/10/2018@15:29:12","rvts_first","Mozilla/5.0 (Windows NT 10.0; Win64; x64; rv:62.0) Gecko/20100101 Firefox/62.0",1080,68,70,74,75,"top_right","top_left",1614,"blue","Switch","right",89,"Color","triangle",1000,0,"blue_key",100,"color",0,1
"A13KMWHXNI4C12",4297,417953,1920,708,1853,"3BGYGHDBBY4UPJ7R10P5G4XLP6722V","22/10/2018@15:29:12","rvts_first","Mozilla/5.0 (Windows NT 10.0; Win64; x64; rv:62.0) Gecko/20100101 Firefox/62.0",1080,68,70,74,75,"top_right","top_left",1616,"red","Repeat","right",90,"Color","circle",1000,0,"red_key",100,"color",0,0
"A13KMWHXNI4C12",4298,417953,1920,708,1853,"3BGYGHDBBY4UPJ7R10P5G4XLP6722V","22/10/2018@15:29:12","rvts_first","Mozilla/5.0 (Windows NT 10.0; Win64; x64; rv:62.0) Gecko/20100101 Firefox/62.0",1080,68,70,74,75,"top_right","top_left",1266,"red","Switch","left",91,"Shape","circle",1000,0,"circle_key",100,"shape",0,1
"A13KMWHXNI4C12",4299,417953,1920,708,1853,"3BGYGHDBBY4UPJ7R10P5G4XLP6722V","22/10/2018@15:29:12","rvts_first","Mozilla/5.0 (Windows NT 10.0; Win64; x64; rv:62.0) Gecko/20100101 Firefox/62.0",1080,68,70,74,75,"top_right","top_left",1397,"blue","Switch","right",92,"Color","triangle",1000,0,"blue_key",100,"color",0,1
"A13KMWHXNI4C12",4300,417953,1920,708,1853,"3BGYGHDBBY4UPJ7R10P5G4XLP6722V","22/10/2018@15:29:12","rvts_first","Mozilla/5.0 (Windows NT 10.0; Win64; x64; rv:62.0) Gecko/20100101 Firefox/62.0",1080,68,70,74,75,"top_right","top_left",1491,"red","Repeat","right",93,"Color","circle",1000,0,"red_key",100,"color",0,0
"A13KMWHXNI4C12",4303,417953,1920,708,1853,"3BGYGHDBBY4UPJ7R10P5G4XLP6722V","22/10/2018@15:29:12","rvts_first","Mozilla/5.0 (Windows NT 10.0; Win64; x64; rv:62.0) Gecko/20100101 Firefox/62.0",1080,68,70,74,75,"top_right","top_left",802,"red","Repeat","left",96,"Shape","circle",100,0,"circle_key",1000,"shape",0,0
"A13KMWHXNI4C12",4304,417953,1920,708,1853,"3BGYGHDBBY4UPJ7R10P5G4XLP6722V","22/10/2018@15:29:12","rvts_first","Mozilla/5.0 (Windows NT 10.0; Win64; x64; rv:62.0) Gecko/20100101 Firefox/62.0",1080,68,70,74,75,"top_right","top_left",741,"blue","Repeat","left",97,"Shape","circle",100,0,"circle_key",1000,"shape",0,0
"A13KMWHXNI4C12",4305,417953,1920,708,1853,"3BGYGHDBBY4UPJ7R10P5G4XLP6722V","22/10/2018@15:29:12","rvts_first","Mozilla/5.0 (Windows NT 10.0; Win64; x64; rv:62.0) Gecko/20100101 Firefox/62.0",1080,68,70,74,75,"top_right","top_left",607,"blue","Repeat","left",98,"Shape","circle",100,0,"circle_key",1000,"shape",0,0
"A13KMWHXNI4C12",4306,417953,1920,708,1853,"3BGYGHDBBY4UPJ7R10P5G4XLP6722V","22/10/2018@15:29:12","rvts_first","Mozilla/5.0 (Windows NT 10.0; Win64; x64; rv:62.0) Gecko/20100101 Firefox/62.0",1080,68,70,74,75,"top_right","top_left",533,"blue","Repeat","left",99,"Shape","circle",100,0,"circle_key",1000,"shape",0,0
"A13KMWHXNI4C12",4307,417953,1920,708,1853,"3BGYGHDBBY4UPJ7R10P5G4XLP6722V","22/10/2018@15:29:12","rvts_first","Mozilla/5.0 (Windows NT 10.0; Win64; x64; rv:62.0) Gecko/20100101 Firefox/62.0",1080,68,70,74,75,"top_right","top_left",871,"red","Repeat","left",100,"Shape","triangle",1000,0,"tri_key",100,"shape",0,0
"A13KMWHXNI4C12",4308,417953,1920,708,1853,"3BGYGHDBBY4UPJ7R10P5G4XLP6722V","22/10/2018@15:29:12","rvts_first","Mozilla/5.0 (Windows NT 10.0; Win64; x64; rv:62.0) Gecko/20100101 Firefox/62.0",1080,68,70,74,75,"top_right","top_left",984,"red","Switch","right",101,"Color","triangle",1000,0,"red_key",100,"color",0,1
"A13KMWHXNI4C12",4309,417953,1920,708,1853,"3BGYGHDBBY4UPJ7R10P5G4XLP6722V","22/10/2018@15:29:12","rvts_first","Mozilla/5.0 (Windows NT 10.0; Win64; x64; rv:62.0) Gecko/20100101 Firefox/62.0",1080,68,70,74,75,"top_right","top_left",1316,"blue","Repeat","right",102,"Color","triangle",1000,0,"blue_key",100,"color",0,0
"A13KMWHXNI4C12",4310,417953,1920,708,1853,"3BGYGHDBBY4UPJ7R10P5G4XLP6722V","22/10/2018@15:29:12","rvts_first","Mozilla/5.0 (Windows NT 10.0; Win64; x64; rv:62.0) Gecko/20100101 Firefox/62.0",1080,68,70,74,75,"top_right","top_left",1251,"red","Repeat","right",103,"Color","triangle",1000,0,"red_key",100,"color",0,0
"A13KMWHXNI4C12",4313,417953,1920,708,1853,"3BGYGHDBBY4UPJ7R10P5G4XLP6722V","22/10/2018@15:29:12","rvts_first","Mozilla/5.0 (Windows NT 10.0; Win64; x64; rv:62.0) Gecko/20100101 Firefox/62.0",1080,68,70,74,75,"top_right","top_left",763,"red","Repeat","left",106,"Shape","triangle",1000,0,"tri_key",100,"shape",0,0
"A13KMWHXNI4C12",4314,417953,1920,708,1853,"3BGYGHDBBY4UPJ7R10P5G4XLP6722V","22/10/2018@15:29:12","rvts_first","Mozilla/5.0 (Windows NT 10.0; Win64; x64; rv:62.0) Gecko/20100101 Firefox/62.0",1080,68,70,74,75,"top_right","top_left",701,"red","Repeat","left",107,"Shape","triangle",1000,0,"tri_key",100,"shape",0,0
"A13KMWHXNI4C12",4315,417953,1920,708,1853,"3BGYGHDBBY4UPJ7R10P5G4XLP6722V","22/10/2018@15:29:12","rvts_first","Mozilla/5.0 (Windows NT 10.0; Win64; x64; rv:62.0) Gecko/20100101 Firefox/62.0",1080,68,70,74,75,"top_right","top_left",1217,"blue","Repeat","left",108,"Shape","circle",1000,0,"circle_key",100,"shape",0,0
"A13KMWHXNI4C12",4316,417953,1920,708,1853,"3BGYGHDBBY4UPJ7R10P5G4XLP6722V","22/10/2018@15:29:12","rvts_first","Mozilla/5.0 (Windows NT 10.0; Win64; x64; rv:62.0) Gecko/20100101 Firefox/62.0",1080,68,70,74,75,"top_right","top_left",777,"blue","Switch","right",109,"Color","circle",100,0,"blue_key",1000,"color",0,1
"A13KMWHXNI4C12",4317,417953,1920,708,1853,"3BGYGHDBBY4UPJ7R10P5G4XLP6722V","22/10/2018@15:29:12","rvts_first","Mozilla/5.0 (Windows NT 10.0; Win64; x64; rv:62.0) Gecko/20100101 Firefox/62.0",1080,68,70,74,75,"top_right","top_left",1165,"blue","Switch","left",110,"Shape","triangle",100,0,"tri_key",1000,"shape",0,1
"A13KMWHXNI4C12",4318,417953,1920,708,1853,"3BGYGHDBBY4UPJ7R10P5G4XLP6722V","22/10/2018@15:29:12","rvts_first","Mozilla/5.0 (Windows NT 10.0; Win64; x64; rv:62.0) Gecko/20100101 Firefox/62.0",1080,68,70,74,75,"top_right","top_left",910,"red","Switch","right",111,"Color","circle",100,0,"red_key",1000,"color",0,1
"A13KMWHXNI4C12",4319,417953,1920,708,1853,"3BGYGHDBBY4UPJ7R10P5G4XLP6722V","22/10/2018@15:29:12","rvts_first","Mozilla/5.0 (Windows NT 10.0; Win64; x64; rv:62.0) Gecko/20100101 Firefox/62.0",1080,68,70,74,75,"top_right","top_left",2005,"blue","Switch","left",112,"Shape","triangle",100,0,"tri_key",1000,"shape",0,1
"A13KMWHXNI4C12",4320,417953,1920,708,1853,"3BGYGHDBBY4UPJ7R10P5G4XLP6722V","22/10/2018@15:29:12","rvts_first","Mozilla/5.0 (Windows NT 10.0; Win64; x64; rv:62.0) Gecko/20100101 Firefox/62.0",1080,68,70,74,75,"top_right","top_left",970,"blue","Switch","right",113,"Color","circle",100,0,"blue_key",1000,"color",0,1
"A13KMWHXNI4C12",4321,417953,1920,708,1853,"3BGYGHDBBY4UPJ7R10P5G4XLP6722V","22/10/2018@15:29:12","rvts_first","Mozilla/5.0 (Windows NT 10.0; Win64; x64; rv:62.0) Gecko/20100101 Firefox/62.0",1080,68,70,74,75,"top_right","top_left",623,"red","Switch","left",114,"Shape","triangle",100,0,"tri_key",1000,"shape",0,1
"A13KMWHXNI4C12",4322,417953,1920,708,1853,"3BGYGHDBBY4UPJ7R10P5G4XLP6722V","22/10/2018@15:29:12","rvts_first","Mozilla/5.0 (Windows NT 10.0; Win64; x64; rv:62.0) Gecko/20100101 Firefox/62.0",1080,68,70,74,75,"top_right","top_left",654,"blue","Switch","right",115,"Color","circle",100,0,"blue_key",1000,"color",0,1
"A13KMWHXNI4C12",4325,417953,1920,708,1853,"3BGYGHDBBY4UPJ7R10P5G4XLP6722V","22/10/2018@15:29:12","rvts_first","Mozilla/5.0 (Windows NT 10.0; Win64; x64; rv:62.0) Gecko/20100101 Firefox/62.0",1080,68,70,74,75,"top_right","top_left",1005,"red","Switch","right",118,"Color","circle",1000,0,"red_key",100,"color",0,1
"A13KMWHXNI4C12",4328,417953,1920,708,1853,"3BGYGHDBBY4UPJ7R10P5G4XLP6722V","22/10/2018@15:29:12","rvts_first","Mozilla/5.0 (Windows NT 10.0; Win64; x64; rv:62.0) Gecko/20100101 Firefox/62.0",1080,68,70,74,75,"top_right","top_left",509,"red","Repeat","right",121,"Color","triangle",100,0,"red_key",1000,"color",0,0
"A13KMWHXNI4C12",4329,417953,1920,708,1853,"3BGYGHDBBY4UPJ7R10P5G4XLP6722V","22/10/2018@15:29:12","rvts_first","Mozilla/5.0 (Windows NT 10.0; Win64; x64; rv:62.0) Gecko/20100101 Firefox/62.0",1080,68,70,74,75,"top_right","top_left",627,"red","Repeat","right",122,"Color","circle",1000,0,"red_key",100,"color",0,0
"A13KMWHXNI4C12",4330,417953,1920,708,1853,"3BGYGHDBBY4UPJ7R10P5G4XLP6722V","22/10/2018@15:29:12","rvts_first","Mozilla/5.0 (Windows NT 10.0; Win64; x64; rv:62.0) Gecko/20100101 Firefox/62.0",1080,68,70,74,75,"top_right","top_left",890,"red","Switch","left",123,"Shape","circle",100,0,"circle_key",1000,"shape",0,1
"A13KMWHXNI4C12",4331,417953,1920,708,1853,"3BGYGHDBBY4UPJ7R10P5G4XLP6722V","22/10/2018@15:29:12","rvts_first","Mozilla/5.0 (Windows NT 10.0; Win64; x64; rv:62.0) Gecko/20100101 Firefox/62.0",1080,68,70,74,75,"top_right","top_left",1819,"blue","Repeat","left",124,"Shape","triangle",100,0,"tri_key",1000,"shape",0,0
"A13KMWHXNI4C12",4332,417953,1920,708,1853,"3BGYGHDBBY4UPJ7R10P5G4XLP6722V","22/10/2018@15:29:12","rvts_first","Mozilla/5.0 (Windows NT 10.0; Win64; x64; rv:62.0) Gecko/20100101 Firefox/62.0",1080,68,70,74,75,"top_right","top_left",1639,"blue","Switch","right",125,"Color","triangle",100,0,"blue_key",1000,"color",0,1
"A13KMWHXNI4C12",4333,417953,1920,708,1853,"3BGYGHDBBY4UPJ7R10P5G4XLP6722V","22/10/2018@15:29:12","rvts_first","Mozilla/5.0 (Windows NT 10.0; Win64; x64; rv:62.0) Gecko/20100101 Firefox/62.0",1080,68,70,74,75,"top_right","top_left",833,"red","Repeat","right",126,"Color","triangle",100,0,"red_key",1000,"color",0,0
"A13KMWHXNI4C12",4334,417953,1920,708,1853,"3BGYGHDBBY4UPJ7R10P5G4XLP6722V","22/10/2018@15:29:12","rvts_first","Mozilla/5.0 (Windows NT 10.0; Win64; x64; rv:62.0) Gecko/20100101 Firefox/62.0",1080,68,70,74,75,"top_right","top_left",876,"red","Repeat","right",127,"Color","circle",1000,0,"red_key",100,"color",0,0
"A13KMWHXNI4C12",4335,417953,1920,708,1853,"3BGYGHDBBY4UPJ7R10P5G4XLP6722V","22/10/2018@15:29:12","rvts_first","Mozilla/5.0 (Windows NT 10.0; Win64; x64; rv:62.0) Gecko/20100101 Firefox/62.0",1080,68,70,74,75,"top_right","top_left",749,"blue","Repeat","right",128,"Color","triangle",1000,0,"blue_key",100,"color",0,0
"A13KMWHXNI4C12",4336,417953,1920,708,1853,"3BGYGHDBBY4UPJ7R10P5G4XLP6722V","22/10/2018@15:29:12","rvts_first","Mozilla/5.0 (Windows NT 10.0; Win64; x64; rv:62.0) Gecko/20100101 Firefox/62.0",1080,68,70,74,75,"top_right","top_left",747,"blue","Repeat","right",129,"Color","triangle",1000,0,"blue_key",100,"color",0,0
"A13KMWHXNI4C12",4337,417953,1920,708,1853,"3BGYGHDBBY4UPJ7R10P5G4XLP6722V","22/10/2018@15:29:12","rvts_first","Mozilla/5.0 (Windows NT 10.0; Win64; x64; rv:62.0) Gecko/20100101 Firefox/62.0",1080,68,70,74,75,"top_right","top_left",656,"red","Repeat","right",130,"Color","circle",1000,0,"red_key",100,"color",0,0
"A13KMWHXNI4C12",4338,417953,1920,708,1853,"3BGYGHDBBY4UPJ7R10P5G4XLP6722V","22/10/2018@15:29:12","rvts_first","Mozilla/5.0 (Windows NT 10.0; Win64; x64; rv:62.0) Gecko/20100101 Firefox/62.0",1080,68,70,74,75,"top_right","top_left",729,"red","Repeat","right",131,"Color","triangle",1000,0,"red_key",100,"color",0,0
"A13KMWHXNI4C12",4341,417953,1920,708,1853,"3BGYGHDBBY4UPJ7R10P5G4XLP6722V","22/10/2018@15:29:12","rvts_first","Mozilla/5.0 (Windows NT 10.0; Win64; x64; rv:62.0) Gecko/20100101 Firefox/62.0",1080,68,70,74,75,"top_right","top_left",1380,"red","Switch","right",134,"Color","circle",100,0,"red_key",1000,"color",0,1
"A13KMWHXNI4C12",4342,417953,1920,708,1853,"3BGYGHDBBY4UPJ7R10P5G4XLP6722V","22/10/2018@15:29:12","rvts_first","Mozilla/5.0 (Windows NT 10.0; Win64; x64; rv:62.0) Gecko/20100101 Firefox/62.0",1080,68,70,74,75,"top_right","top_left",966,"blue","Switch","left",135,"Shape","circle",100,0,"circle_key",1000,"shape",0,1
"A13KMWHXNI4C12",4343,417953,1920,708,1853,"3BGYGHDBBY4UPJ7R10P5G4XLP6722V","22/10/2018@15:29:12","rvts_first","Mozilla/5.0 (Windows NT 10.0; Win64; x64; rv:62.0) Gecko/20100101 Firefox/62.0",1080,68,70,74,75,"top_right","top_left",1288,"blue","Switch","right",136,"Color","triangle",1000,0,"blue_key",100,"color",0,1
"A13KMWHXNI4C12",4344,417953,1920,708,1853,"3BGYGHDBBY4UPJ7R10P5G4XLP6722V","22/10/2018@15:29:12","rvts_first","Mozilla/5.0 (Windows NT 10.0; Win64; x64; rv:62.0) Gecko/20100101 Firefox/62.0",1080,68,70,74,75,"top_right","top_left",929,"red","Repeat","right",137,"Color","triangle",1000,0,"red_key",100,"color",0,0
"A13KMWHXNI4C12",4345,417953,1920,708,1853,"3BGYGHDBBY4UPJ7R10P5G4XLP6722V","22/10/2018@15:29:12","rvts_first","Mozilla/5.0 (Windows NT 10.0; Win64; x64; rv:62.0) Gecko/20100101 Firefox/62.0",1080,68,70,74,75,"top_right","top_left",476,"red","Switch","left",138,"Shape","triangle",100,0,"tri_key",1000,"shape",0,1
"A13KMWHXNI4C12",4346,417953,1920,708,1853,"3BGYGHDBBY4UPJ7R10P5G4XLP6722V","22/10/2018@15:29:12","rvts_first","Mozilla/5.0 (Windows NT 10.0; Win64; x64; rv:62.0) Gecko/20100101 Firefox/62.0",1080,68,70,74,75,"top_right","top_left",911,"red","Switch","right",139,"Color","circle",1000,0,"red_key",100,"color",0,1
"A13KMWHXNI4C12",4347,417953,1920,708,1853,"3BGYGHDBBY4UPJ7R10P5G4XLP6722V","22/10/2018@15:29:12","rvts_first","Mozilla/5.0 (Windows NT 10.0; Win64; x64; rv:62.0) Gecko/20100101 Firefox/62.0",1080,68,70,74,75,"top_right","top_left",657,"red","Switch","left",140,"Shape","circle",100,0,"circle_key",1000,"shape",0,1
"A13KMWHXNI4C12",4348,417953,1920,708,1853,"3BGYGHDBBY4UPJ7R10P5G4XLP6722V","22/10/2018@15:29:12","rvts_first","Mozilla/5.0 (Windows NT 10.0; Win64; x64; rv:62.0) Gecko/20100101 Firefox/62.0",1080,68,70,74,75,"top_right","top_left",709,"blue","Switch","right",141,"Color","triangle",100,0,"blue_key",1000,"color",0,1
"A13KMWHXNI4C12",4349,417953,1920,708,1853,"3BGYGHDBBY4UPJ7R10P5G4XLP6722V","22/10/2018@15:29:12","rvts_first","Mozilla/5.0 (Windows NT 10.0; Win64; x64; rv:62.0) Gecko/20100101 Firefox/62.0",1080,68,70,74,75,"top_right","top_left",684,"red","Switch","left",142,"Shape","triangle",100,0,"tri_key",1000,"shape",0,1
"A13KMWHXNI4C12",4350,417953,1920,708,1853,"3BGYGHDBBY4UPJ7R10P5G4XLP6722V","22/10/2018@15:29:12","rvts_first","Mozilla/5.0 (Windows NT 10.0; Win64; x64; rv:62.0) Gecko/20100101 Firefox/62.0",1080,68,70,74,75,"top_right","top_left",598,"red","Repeat","left",143,"Shape","triangle",100,0,"tri_key",1000,"shape",0,0
"A13KMWHXNI4C12",4351,417953,1920,708,1853,"3BGYGHDBBY4UPJ7R10P5G4XLP6722V","22/10/2018@15:29:12","rvts_first","Mozilla/5.0 (Windows NT 10.0; Win64; x64; rv:62.0) Gecko/20100101 Firefox/62.0",1080,68,70,74,75,"top_right","top_left",729,"red","Switch","right",144,"Color","triangle",1000,0,"red_key",100,"color",0,1
"A13KMWHXNI4C12",4352,417953,1920,708,1853,"3BGYGHDBBY4UPJ7R10P5G4XLP6722V","22/10/2018@15:29:12","rvts_first","Mozilla/5.0 (Windows NT 10.0; Win64; x64; rv:62.0) Gecko/20100101 Firefox/62.0",1080,68,70,74,75,"top_right","top_left",1875,"blue","Switch","left",145,"Shape","circle",1000,0,"circle_key",100,"shape",0,1
"A13KMWHXNI4C12",4353,417953,1920,708,1853,"3BGYGHDBBY4UPJ7R10P5G4XLP6722V","22/10/2018@15:29:12","rvts_first","Mozilla/5.0 (Windows NT 10.0; Win64; x64; rv:62.0) Gecko/20100101 Firefox/62.0",1080,68,70,74,75,"top_right","top_left",424,"blue","Repeat","left",146,"Shape","circle",100,0,"circle_key",1000,"shape",0,0
"A13KMWHXNI4C12",4354,417953,1920,708,1853,"3BGYGHDBBY4UPJ7R10P5G4XLP6722V","22/10/2018@15:29:12","rvts_first","Mozilla/5.0 (Windows NT 10.0; Win64; x64; rv:62.0) Gecko/20100101 Firefox/62.0",1080,68,70,74,75,"top_right","top_left",475,"blue","Repeat","left",147,"Shape","circle",1000,0,"circle_key",100,"shape",0,0
"A13KMWHXNI4C12",4355,417953,1920,708,1853,"3BGYGHDBBY4UPJ7R10P5G4XLP6722V","22/10/2018@15:29:12","rvts_first","Mozilla/5.0 (Windows NT 10.0; Win64; x64; rv:62.0) Gecko/20100101 Firefox/62.0",1080,68,70,74,75,"top_right","top_left",528,"blue","Switch","right",148,"Color","circle",100,0,"blue_key",1000,"color",0,1
"A13KMWHXNI4C12",4356,417953,1920,708,1853,"3BGYGHDBBY4UPJ7R10P5G4XLP6722V","22/10/2018@15:29:12","rvts_first","Mozilla/5.0 (Windows NT 10.0; Win64; x64; rv:62.0) Gecko/20100101 Firefox/62.0",1080,68,70,74,75,"top_right","top_left",443,"blue","Switch","left",149,"Shape","circle",100,0,"circle_key",1000,"shape",0,1
"A13KMWHXNI4C12",4357,417953,1920,708,1853,"3BGYGHDBBY4UPJ7R10P5G4XLP6722V","22/10/2018@15:29:12","rvts_first","Mozilla/5.0 (Windows NT 10.0; Win64; x64; rv:62.0) Gecko/20100101 Firefox/62.0",1080,68,70,74,75,"top_right","top_left",516,"blue","Repeat","left",150,"Shape","triangle",100,0,"tri_key",1000,"shape",0,0
"A13KMWHXNI4C12",4358,417953,1920,708,1853,"3BGYGHDBBY4UPJ7R10P5G4XLP6722V","22/10/2018@15:29:12","rvts_first","Mozilla/5.0 (Windows NT 10.0; Win64; x64; rv:62.0) Gecko/20100101 Firefox/62.0",1080,68,70,74,75,"top_right","top_left",654,"red","Switch","right",151,"Color","circle",1000,0,"red_key",100,"color",0,1
"A13KMWHXNI4C12",4359,417953,1920,708,1853,"3BGYGHDBBY4UPJ7R10P5G4XLP6722V","22/10/2018@15:29:12","rvts_first","Mozilla/5.0 (Windows NT 10.0; Win64; x64; rv:62.0) Gecko/20100101 Firefox/62.0",1080,68,70,74,75,"top_right","top_left",977,"blue","Repeat","right",152,"Color","triangle",100,0,"blue_key",1000,"color",0,0
"A13KMWHXNI4C12",4360,417953,1920,708,1853,"3BGYGHDBBY4UPJ7R10P5G4XLP6722V","22/10/2018@15:29:12","rvts_first","Mozilla/5.0 (Windows NT 10.0; Win64; x64; rv:62.0) Gecko/20100101 Firefox/62.0",1080,68,70,74,75,"top_right","top_left",779,"red","Switch","left",153,"Shape","triangle",100,0,"tri_key",1000,"shape",0,1
"A13KMWHXNI4C12",4361,417953,1920,708,1853,"3BGYGHDBBY4UPJ7R10P5G4XLP6722V","22/10/2018@15:29:12","rvts_first","Mozilla/5.0 (Windows NT 10.0; Win64; x64; rv:62.0) Gecko/20100101 Firefox/62.0",1080,68,70,74,75,"top_right","top_left",594,"red","Switch","right",154,"Color","circle",1000,0,"red_key",100,"color",0,1
"A13KMWHXNI4C12",4366,417953,1920,708,1853,"3BGYGHDBBY4UPJ7R10P5G4XLP6722V","22/10/2018@15:29:12","rvts_first","Mozilla/5.0 (Windows NT 10.0; Win64; x64; rv:62.0) Gecko/20100101 Firefox/62.0",1080,68,70,74,75,"top_right","top_left",779,"red","Switch","right",159,"Color","triangle",1000,0,"red_key",100,"color",0,1
"A13KMWHXNI4C12",4367,417953,1920,708,1853,"3BGYGHDBBY4UPJ7R10P5G4XLP6722V","22/10/2018@15:29:12","rvts_first","Mozilla/5.0 (Windows NT 10.0; Win64; x64; rv:62.0) Gecko/20100101 Firefox/62.0",1080,68,70,74,75,"top_right","top_left",1494,"blue","Switch","left",160,"Shape","triangle",1000,0,"tri_key",100,"shape",0,1
"A15SBWIYJ9AGVZ",8689,368297,1280,735,1436,"3X66WABAJX29PVBH4FOZ1IWE55F3GX","22/10/2018@15:04:29","cued_first","Mozilla/5.0 (Macintosh; Intel Mac OS X 10_12_2) AppleWebKit/537.36 (KHTML, like Gecko) Chrome/69.0.3497.100 Safari/537.36",800,70,68,75,74,"top_right","top_left",1784,"red","Repeat","left",2,"Shape","circle",100,0,"circle_key",1000,"shape",0,0
"A15SBWIYJ9AGVZ",8690,368297,1280,735,1436,"3X66WABAJX29PVBH4FOZ1IWE55F3GX","22/10/2018@15:04:29","cued_first","Mozilla/5.0 (Macintosh; Intel Mac OS X 10_12_2) AppleWebKit/537.36 (KHTML, like Gecko) Chrome/69.0.3497.100 Safari/537.36",800,70,68,75,74,"top_right","top_left",2316,"blue","Repeat","left",3,"Shape","circle",1000,0,"circle_key",100,"shape",0,0
"A15SBWIYJ9AGVZ",8691,368297,1280,735,1436,"3X66WABAJX29PVBH4FOZ1IWE55F3GX","22/10/2018@15:04:29","cued_first","Mozilla/5.0 (Macintosh; Intel Mac OS X 10_12_2) AppleWebKit/537.36 (KHTML, like Gecko) Chrome/69.0.3497.100 Safari/537.36",800,70,68,75,74,"top_right","top_left",877,"red","Repeat","left",4,"Shape","triangle",1000,0,"tri_key",100,"shape",0,0
"A15SBWIYJ9AGVZ",8692,368297,1280,735,1436,"3X66WABAJX29PVBH4FOZ1IWE55F3GX","22/10/2018@15:04:29","cued_first","Mozilla/5.0 (Macintosh; Intel Mac OS X 10_12_2) AppleWebKit/537.36 (KHTML, like Gecko) Chrome/69.0.3497.100 Safari/537.36",800,70,68,75,74,"top_right","top_left",1237,"blue","Repeat","left",5,"Shape","circle",100,0,"circle_key",1000,"shape",0,0
"A15SBWIYJ9AGVZ",8695,368297,1280,735,1436,"3X66WABAJX29PVBH4FOZ1IWE55F3GX","22/10/2018@15:04:29","cued_first","Mozilla/5.0 (Macintosh; Intel Mac OS X 10_12_2) AppleWebKit/537.36 (KHTML, like Gecko) Chrome/69.0.3497.100 Safari/537.36",800,70,68,75,74,"top_right","top_left",939,"red","Repeat","right",8,"Color","triangle",100,0,"red_key",1000,"color",0,0
"A15SBWIYJ9AGVZ",8696,368297,1280,735,1436,"3X66WABAJX29PVBH4FOZ1IWE55F3GX","22/10/2018@15:04:29","cued_first","Mozilla/5.0 (Macintosh; Intel Mac OS X 10_12_2) AppleWebKit/537.36 (KHTML, like Gecko) Chrome/69.0.3497.100 Safari/537.36",800,70,68,75,74,"top_right","top_left",1241,"blue","Switch","left",9,"Shape","circle",100,0,"circle_key",1000,"shape",0,1
"A15SBWIYJ9AGVZ",8697,368297,1280,735,1436,"3X66WABAJX29PVBH4FOZ1IWE55F3GX","22/10/2018@15:04:29","cued_first","Mozilla/5.0 (Macintosh; Intel Mac OS X 10_12_2) AppleWebKit/537.36 (KHTML, like Gecko) Chrome/69.0.3497.100 Safari/537.36",800,70,68,75,74,"top_right","top_left",821,"blue","Switch","right",10,"Color","triangle",100,0,"blue_key",1000,"color",0,1
"A15SBWIYJ9AGVZ",8698,368297,1280,735,1436,"3X66WABAJX29PVBH4FOZ1IWE55F3GX","22/10/2018@15:04:29","cued_first","Mozilla/5.0 (Macintosh; Intel Mac OS X 10_12_2) AppleWebKit/537.36 (KHTML, like Gecko) Chrome/69.0.3497.100 Safari/537.36",800,70,68,75,74,"top_right","top_left",1004,"blue","Repeat","right",11,"Color","triangle",1000,0,"blue_key",100,"color",0,0
"A15SBWIYJ9AGVZ",8699,368297,1280,735,1436,"3X66WABAJX29PVBH4FOZ1IWE55F3GX","22/10/2018@15:04:29","cued_first","Mozilla/5.0 (Macintosh; Intel Mac OS X 10_12_2) AppleWebKit/537.36 (KHTML, like Gecko) Chrome/69.0.3497.100 Safari/537.36",800,70,68,75,74,"top_right","top_left",1733,"blue","Switch","left",12,"Shape","circle",1000,0,"circle_key",100,"shape",0,1
"A15SBWIYJ9AGVZ",8700,368297,1280,735,1436,"3X66WABAJX29PVBH4FOZ1IWE55F3GX","22/10/2018@15:04:29","cued_first","Mozilla/5.0 (Macintosh; Intel Mac OS X 10_12_2) AppleWebKit/537.36 (KHTML, like Gecko) Chrome/69.0.3497.100 Safari/537.36",800,70,68,75,74,"top_right","top_left",1214,"blue","Repeat","left",13,"Shape","triangle",1000,0,"tri_key",100,"shape",0,0
"A15SBWIYJ9AGVZ",8701,368297,1280,735,1436,"3X66WABAJX29PVBH4FOZ1IWE55F3GX","22/10/2018@15:04:29","cued_first","Mozilla/5.0 (Macintosh; Intel Mac OS X 10_12_2) AppleWebKit/537.36 (KHTML, like Gecko) Chrome/69.0.3497.100 Safari/537.36",800,70,68,75,74,"top_right","top_left",1062,"red","Repeat","left",14,"Shape","triangle",100,0,"tri_key",1000,"shape",0,0
"A15SBWIYJ9AGVZ",8702,368297,1280,735,1436,"3X66WABAJX29PVBH4FOZ1IWE55F3GX","22/10/2018@15:04:29","cued_first","Mozilla/5.0 (Macintosh; Intel Mac OS X 10_12_2) AppleWebKit/537.36 (KHTML, like Gecko) Chrome/69.0.3497.100 Safari/537.36",800,70,68,75,74,"top_right","top_left",501,"red","Switch","right",15,"Color","circle",100,0,"red_key",1000,"color",0,1
"A15SBWIYJ9AGVZ",8703,368297,1280,735,1436,"3X66WABAJX29PVBH4FOZ1IWE55F3GX","22/10/2018@15:04:29","cued_first","Mozilla/5.0 (Macintosh; Intel Mac OS X 10_12_2) AppleWebKit/537.36 (KHTML, like Gecko) Chrome/69.0.3497.100 Safari/537.36",800,70,68,75,74,"top_right","top_left",576,"blue","Repeat","right",16,"Color","circle",1000,0,"blue_key",100,"color",0,0
"A15SBWIYJ9AGVZ",8704,368297,1280,735,1436,"3X66WABAJX29PVBH4FOZ1IWE55F3GX","22/10/2018@15:04:29","cued_first","Mozilla/5.0 (Macintosh; Intel Mac OS X 10_12_2) AppleWebKit/537.36 (KHTML, like Gecko) Chrome/69.0.3497.100 Safari/537.36",800,70,68,75,74,"top_right","top_left",3175,"blue","Switch","left",17,"Shape","circle",1000,0,"circle_key",100,"shape",0,1
"A15SBWIYJ9AGVZ",8705,368297,1280,735,1436,"3X66WABAJX29PVBH4FOZ1IWE55F3GX","22/10/2018@15:04:29","cued_first","Mozilla/5.0 (Macintosh; Intel Mac OS X 10_12_2) AppleWebKit/537.36 (KHTML, like Gecko) Chrome/69.0.3497.100 Safari/537.36",800,70,68,75,74,"top_right","top_left",784,"blue","Switch","right",18,"Color","circle",100,0,"blue_key",1000,"color",0,1
"A15SBWIYJ9AGVZ",8706,368297,1280,735,1436,"3X66WABAJX29PVBH4FOZ1IWE55F3GX","22/10/2018@15:04:29","cued_first","Mozilla/5.0 (Macintosh; Intel Mac OS X 10_12_2) AppleWebKit/537.36 (KHTML, like Gecko) Chrome/69.0.3497.100 Safari/537.36",800,70,68,75,74,"top_right","top_left",802,"blue","Repeat","right",19,"Color","triangle",1000,0,"blue_key",100,"color",0,0
"A15SBWIYJ9AGVZ",8707,368297,1280,735,1436,"3X66WABAJX29PVBH4FOZ1IWE55F3GX","22/10/2018@15:04:29","cued_first","Mozilla/5.0 (Macintosh; Intel Mac OS X 10_12_2) AppleWebKit/537.36 (KHTML, like Gecko) Chrome/69.0.3497.100 Safari/537.36",800,70,68,75,74,"top_right","top_left",2171,"red","Switch","left",20,"Shape","circle",1000,0,"circle_key",100,"shape",0,1
"A15SBWIYJ9AGVZ",8710,368297,1280,735,1436,"3X66WABAJX29PVBH4FOZ1IWE55F3GX","22/10/2018@15:04:29","cued_first","Mozilla/5.0 (Macintosh; Intel Mac OS X 10_12_2) AppleWebKit/537.36 (KHTML, like Gecko) Chrome/69.0.3497.100 Safari/537.36",800,70,68,75,74,"top_right","top_left",1439,"red","Repeat","right",23,"Color","circle",100,0,"red_key",1000,"color",0,0
"A15SBWIYJ9AGVZ",8711,368297,1280,735,1436,"3X66WABAJX29PVBH4FOZ1IWE55F3GX","22/10/2018@15:04:29","cued_first","Mozilla/5.0 (Macintosh; Intel Mac OS X 10_12_2) AppleWebKit/537.36 (KHTML, like Gecko) Chrome/69.0.3497.100 Safari/537.36",800,70,68,75,74,"top_right","top_left",889,"blue","Repeat","right",24,"Color","triangle",1000,0,"blue_key",100,"color",0,0
"A15SBWIYJ9AGVZ",8712,368297,1280,735,1436,"3X66WABAJX29PVBH4FOZ1IWE55F3GX","22/10/2018@15:04:29","cued_first","Mozilla/5.0 (Macintosh; Intel Mac OS X 10_12_2) AppleWebKit/537.36 (KHTML, like Gecko) Chrome/69.0.3497.100 Safari/537.36",800,70,68,75,74,"top_right","top_left",785,"red","Repeat","right",25,"Color","circle",1000,0,"red_key",100,"color",0,0
"A15SBWIYJ9AGVZ",8713,368297,1280,735,1436,"3X66WABAJX29PVBH4FOZ1IWE55F3GX","22/10/2018@15:04:29","cued_first","Mozilla/5.0 (Macintosh; Intel Mac OS X 10_12_2) AppleWebKit/537.36 (KHTML, like Gecko) Chrome/69.0.3497.100 Safari/537.36",800,70,68,75,74,"top_right","top_left",981,"blue","Repeat","right",26,"Color","circle",1000,0,"blue_key",100,"color",0,0
"A15SBWIYJ9AGVZ",8714,368297,1280,735,1436,"3X66WABAJX29PVBH4FOZ1IWE55F3GX","22/10/2018@15:04:29","cued_first","Mozilla/5.0 (Macintosh; Intel Mac OS X 10_12_2) AppleWebKit/537.36 (KHTML, like Gecko) Chrome/69.0.3497.100 Safari/537.36",800,70,68,75,74,"top_right","top_left",780,"red","Repeat","right",27,"Color","circle",1000,0,"red_key",100,"color",0,0
"A15SBWIYJ9AGVZ",8715,368297,1280,735,1436,"3X66WABAJX29PVBH4FOZ1IWE55F3GX","22/10/2018@15:04:29","cued_first","Mozilla/5.0 (Macintosh; Intel Mac OS X 10_12_2) AppleWebKit/537.36 (KHTML, like Gecko) Chrome/69.0.3497.100 Safari/537.36",800,70,68,75,74,"top_right","top_left",733,"blue","Repeat","right",28,"Color","triangle",100,0,"blue_key",1000,"color",0,0
"A15SBWIYJ9AGVZ",8716,368297,1280,735,1436,"3X66WABAJX29PVBH4FOZ1IWE55F3GX","22/10/2018@15:04:29","cued_first","Mozilla/5.0 (Macintosh; Intel Mac OS X 10_12_2) AppleWebKit/537.36 (KHTML, like Gecko) Chrome/69.0.3497.100 Safari/537.36",800,70,68,75,74,"top_right","top_left",974,"red","Switch","left",29,"Shape","triangle",1000,0,"tri_key",100,"shape",0,1
"A15SBWIYJ9AGVZ",8717,368297,1280,735,1436,"3X66WABAJX29PVBH4FOZ1IWE55F3GX","22/10/2018@15:04:29","cued_first","Mozilla/5.0 (Macintosh; Intel Mac OS X 10_12_2) AppleWebKit/537.36 (KHTML, like Gecko) Chrome/69.0.3497.100 Safari/537.36",800,70,68,75,74,"top_right","top_left",532,"blue","Repeat","left",30,"Shape","circle",1000,0,"circle_key",100,"shape",0,0
"A15SBWIYJ9AGVZ",8718,368297,1280,735,1436,"3X66WABAJX29PVBH4FOZ1IWE55F3GX","22/10/2018@15:04:29","cued_first","Mozilla/5.0 (Macintosh; Intel Mac OS X 10_12_2) AppleWebKit/537.36 (KHTML, like Gecko) Chrome/69.0.3497.100 Safari/537.36",800,70,68,75,74,"top_right","top_left",741,"red","Repeat","left",31,"Shape","triangle",100,0,"tri_key",1000,"shape",0,0
"A15SBWIYJ9AGVZ",8719,368297,1280,735,1436,"3X66WABAJX29PVBH4FOZ1IWE55F3GX","22/10/2018@15:04:29","cued_first","Mozilla/5.0 (Macintosh; Intel Mac OS X 10_12_2) AppleWebKit/537.36 (KHTML, like Gecko) Chrome/69.0.3497.100 Safari/537.36",800,70,68,75,74,"top_right","top_left",500,"red","Repeat","left",32,"Shape","triangle",100,0,"tri_key",1000,"shape",0,0
"A15SBWIYJ9AGVZ",8720,368297,1280,735,1436,"3X66WABAJX29PVBH4FOZ1IWE55F3GX","22/10/2018@15:04:29","cued_first","Mozilla/5.0 (Macintosh; Intel Mac OS X 10_12_2) AppleWebKit/537.36 (KHTML, like Gecko) Chrome/69.0.3497.100 Safari/537.36",800,70,68,75,74,"top_right","top_left",804,"red","Switch","right",33,"Color","triangle",1000,0,"red_key",100,"color",0,1
"A15SBWIYJ9AGVZ",8721,368297,1280,735,1436,"3X66WABAJX29PVBH4FOZ1IWE55F3GX","22/10/2018@15:04:29","cued_first","Mozilla/5.0 (Macintosh; Intel Mac OS X 10_12_2) AppleWebKit/537.36 (KHTML, like Gecko) Chrome/69.0.3497.100 Safari/537.36",800,70,68,75,74,"top_right","top_left",2350,"red","Switch","left",34,"Shape","circle",1000,0,"circle_key",100,"shape",0,1
"A15SBWIYJ9AGVZ",8722,368297,1280,735,1436,"3X66WABAJX29PVBH4FOZ1IWE55F3GX","22/10/2018@15:04:29","cued_first","Mozilla/5.0 (Macintosh; Intel Mac OS X 10_12_2) AppleWebKit/537.36 (KHTML, like Gecko) Chrome/69.0.3497.100 Safari/537.36",800,70,68,75,74,"top_right","top_left",1864,"blue","Switch","right",35,"Color","circle",100,0,"blue_key",1000,"color",0,1
"A15SBWIYJ9AGVZ",8723,368297,1280,735,1436,"3X66WABAJX29PVBH4FOZ1IWE55F3GX","22/10/2018@15:04:29","cued_first","Mozilla/5.0 (Macintosh; Intel Mac OS X 10_12_2) AppleWebKit/537.36 (KHTML, like Gecko) Chrome/69.0.3497.100 Safari/537.36",800,70,68,75,74,"top_right","top_left",1950,"red","Repeat","right",36,"Color","circle",1000,0,"red_key",100,"color",0,0
"A15SBWIYJ9AGVZ",8724,368297,1280,735,1436,"3X66WABAJX29PVBH4FOZ1IWE55F3GX","22/10/2018@15:04:29","cued_first","Mozilla/5.0 (Macintosh; Intel Mac OS X 10_12_2) AppleWebKit/537.36 (KHTML, like Gecko) Chrome/69.0.3497.100 Safari/537.36",800,70,68,75,74,"top_right","top_left",1371,"blue","Repeat","right",37,"Color","circle",1000,0,"blue_key",100,"color",0,0
"A15SBWIYJ9AGVZ",8725,368297,1280,735,1436,"3X66WABAJX29PVBH4FOZ1IWE55F3GX","22/10/2018@15:04:29","cued_first","Mozilla/5.0 (Macintosh; Intel Mac OS X 10_12_2) AppleWebKit/537.36 (KHTML, like Gecko) Chrome/69.0.3497.100 Safari/537.36",800,70,68,75,74,"top_right","top_left",2134,"red","Switch","left",38,"Shape","circle",1000,0,"circle_key",100,"shape",0,1
"A15SBWIYJ9AGVZ",8726,368297,1280,735,1436,"3X66WABAJX29PVBH4FOZ1IWE55F3GX","22/10/2018@15:04:29","cued_first","Mozilla/5.0 (Macintosh; Intel Mac OS X 10_12_2) AppleWebKit/537.36 (KHTML, like Gecko) Chrome/69.0.3497.100 Safari/537.36",800,70,68,75,74,"top_right","top_left",1580,"blue","Repeat","left",39,"Shape","circle",1000,0,"circle_key",100,"shape",0,0
"A15SBWIYJ9AGVZ",8727,368297,1280,735,1436,"3X66WABAJX29PVBH4FOZ1IWE55F3GX","22/10/2018@15:04:29","cued_first","Mozilla/5.0 (Macintosh; Intel Mac OS X 10_12_2) AppleWebKit/537.36 (KHTML, like Gecko) Chrome/69.0.3497.100 Safari/537.36",800,70,68,75,74,"top_right","top_left",924,"red","Repeat","left",40,"Shape","circle",1000,0,"circle_key",100,"shape",0,0
"A15SBWIYJ9AGVZ",8728,368297,1280,735,1436,"3X66WABAJX29PVBH4FOZ1IWE55F3GX","22/10/2018@15:04:29","cued_first","Mozilla/5.0 (Macintosh; Intel Mac OS X 10_12_2) AppleWebKit/537.36 (KHTML, like Gecko) Chrome/69.0.3497.100 Safari/537.36",800,70,68,75,74,"top_right","top_left",935,"blue","Repeat","left",41,"Shape","circle",1000,0,"circle_key",100,"shape",0,0
"A15SBWIYJ9AGVZ",8729,368297,1280,735,1436,"3X66WABAJX29PVBH4FOZ1IWE55F3GX","22/10/2018@15:04:29","cued_first","Mozilla/5.0 (Macintosh; Intel Mac OS X 10_12_2) AppleWebKit/537.36 (KHTML, like Gecko) Chrome/69.0.3497.100 Safari/537.36",800,70,68,75,74,"top_right","top_left",380,"red","Repeat","left",42,"Shape","circle",100,0,"circle_key",1000,"shape",0,0
"A15SBWIYJ9AGVZ",8730,368297,1280,735,1436,"3X66WABAJX29PVBH4FOZ1IWE55F3GX","22/10/2018@15:04:29","cued_first","Mozilla/5.0 (Macintosh; Intel Mac OS X 10_12_2) AppleWebKit/537.36 (KHTML, like Gecko) Chrome/69.0.3497.100 Safari/537.36",800,70,68,75,74,"top_right","top_left",831,"red","Switch","right",43,"Color","triangle",100,0,"red_key",1000,"color",0,1
"A15SBWIYJ9AGVZ",8731,368297,1280,735,1436,"3X66WABAJX29PVBH4FOZ1IWE55F3GX","22/10/2018@15:04:29","cued_first","Mozilla/5.0 (Macintosh; Intel Mac OS X 10_12_2) AppleWebKit/537.36 (KHTML, like Gecko) Chrome/69.0.3497.100 Safari/537.36",800,70,68,75,74,"top_right","top_left",1144,"red","Repeat","right",44,"Color","triangle",1000,0,"red_key",100,"color",0,0
"A15SBWIYJ9AGVZ",8732,368297,1280,735,1436,"3X66WABAJX29PVBH4FOZ1IWE55F3GX","22/10/2018@15:04:29","cued_first","Mozilla/5.0 (Macintosh; Intel Mac OS X 10_12_2) AppleWebKit/537.36 (KHTML, like Gecko) Chrome/69.0.3497.100 Safari/537.36",800,70,68,75,74,"top_right","top_left",1389,"blue","Repeat","right",45,"Color","circle",100,0,"blue_key",1000,"color",0,0
"A15SBWIYJ9AGVZ",8733,368297,1280,735,1436,"3X66WABAJX29PVBH4FOZ1IWE55F3GX","22/10/2018@15:04:29","cued_first","Mozilla/5.0 (Macintosh; Intel Mac OS X 10_12_2) AppleWebKit/537.36 (KHTML, like Gecko) Chrome/69.0.3497.100 Safari/537.36",800,70,68,75,74,"top_right","top_left",1315,"blue","Switch","left",46,"Shape","triangle",1000,0,"tri_key",100,"shape",0,1
"A15SBWIYJ9AGVZ",8734,368297,1280,735,1436,"3X66WABAJX29PVBH4FOZ1IWE55F3GX","22/10/2018@15:04:29","cued_first","Mozilla/5.0 (Macintosh; Intel Mac OS X 10_12_2) AppleWebKit/537.36 (KHTML, like Gecko) Chrome/69.0.3497.100 Safari/537.36",800,70,68,75,74,"top_right","top_left",654,"blue","Repeat","left",47,"Shape","triangle",1000,0,"tri_key",100,"shape",0,0
"A15SBWIYJ9AGVZ",8735,368297,1280,735,1436,"3X66WABAJX29PVBH4FOZ1IWE55F3GX","22/10/2018@15:04:29","cued_first","Mozilla/5.0 (Macintosh; Intel Mac OS X 10_12_2) AppleWebKit/537.36 (KHTML, like Gecko) Chrome/69.0.3497.100 Safari/537.36",800,70,68,75,74,"top_right","top_left",1221,"red","Switch","right",48,"Color","circle",100,0,"red_key",1000,"color",0,1
"A15SBWIYJ9AGVZ",8736,368297,1280,735,1436,"3X66WABAJX29PVBH4FOZ1IWE55F3GX","22/10/2018@15:04:29","cued_first","Mozilla/5.0 (Macintosh; Intel Mac OS X 10_12_2) AppleWebKit/537.36 (KHTML, like Gecko) Chrome/69.0.3497.100 Safari/537.36",800,70,68,75,74,"top_right","top_left",507,"red","Repeat","right",49,"Color","triangle",1000,0,"red_key",100,"color",0,0
"A15SBWIYJ9AGVZ",8737,368297,1280,735,1436,"3X66WABAJX29PVBH4FOZ1IWE55F3GX","22/10/2018@15:04:29","cued_first","Mozilla/5.0 (Macintosh; Intel Mac OS X 10_12_2) AppleWebKit/537.36 (KHTML, like Gecko) Chrome/69.0.3497.100 Safari/537.36",800,70,68,75,74,"top_right","top_left",1131,"blue","Repeat","right",50,"Color","circle",1000,0,"blue_key",100,"color",0,0
"A15SBWIYJ9AGVZ",8738,368297,1280,735,1436,"3X66WABAJX29PVBH4FOZ1IWE55F3GX","22/10/2018@15:04:29","cued_first","Mozilla/5.0 (Macintosh; Intel Mac OS X 10_12_2) AppleWebKit/537.36 (KHTML, like Gecko) Chrome/69.0.3497.100 Safari/537.36",800,70,68,75,74,"top_right","top_left",666,"red","Repeat","right",51,"Color","triangle",1000,0,"red_key",100,"color",0,0
"A15SBWIYJ9AGVZ",8739,368297,1280,735,1436,"3X66WABAJX29PVBH4FOZ1IWE55F3GX","22/10/2018@15:04:29","cued_first","Mozilla/5.0 (Macintosh; Intel Mac OS X 10_12_2) AppleWebKit/537.36 (KHTML, like Gecko) Chrome/69.0.3497.100 Safari/537.36",800,70,68,75,74,"top_right","top_left",842,"red","Switch","left",52,"Shape","triangle",1000,0,"tri_key",100,"shape",0,1
"A15SBWIYJ9AGVZ",8743,368297,1280,735,1436,"3X66WABAJX29PVBH4FOZ1IWE55F3GX","22/10/2018@15:04:29","cued_first","Mozilla/5.0 (Macintosh; Intel Mac OS X 10_12_2) AppleWebKit/537.36 (KHTML, like Gecko) Chrome/69.0.3497.100 Safari/537.36",800,70,68,75,74,"top_right","top_left",1017,"red","Repeat","left",56,"Shape","triangle",1000,0,"tri_key",100,"shape",0,0
"A15SBWIYJ9AGVZ",8744,368297,1280,735,1436,"3X66WABAJX29PVBH4FOZ1IWE55F3GX","22/10/2018@15:04:29","cued_first","Mozilla/5.0 (Macintosh; Intel Mac OS X 10_12_2) AppleWebKit/537.36 (KHTML, like Gecko) Chrome/69.0.3497.100 Safari/537.36",800,70,68,75,74,"top_right","top_left",1237,"blue","Switch","right",57,"Color","circle",1000,0,"blue_key",100,"color",0,1
"A15SBWIYJ9AGVZ",8748,368297,1280,735,1436,"3X66WABAJX29PVBH4FOZ1IWE55F3GX","22/10/2018@15:04:29","cued_first","Mozilla/5.0 (Macintosh; Intel Mac OS X 10_12_2) AppleWebKit/537.36 (KHTML, like Gecko) Chrome/69.0.3497.100 Safari/537.36",800,70,68,75,74,"top_right","top_left",1502,"blue","Repeat","right",61,"Color","circle",1000,0,"blue_key",100,"color",0,0
"A15SBWIYJ9AGVZ",8749,368297,1280,735,1436,"3X66WABAJX29PVBH4FOZ1IWE55F3GX","22/10/2018@15:04:29","cued_first","Mozilla/5.0 (Macintosh; Intel Mac OS X 10_12_2) AppleWebKit/537.36 (KHTML, like Gecko) Chrome/69.0.3497.100 Safari/537.36",800,70,68,75,74,"top_right","top_left",1255,"blue","Switch","left",62,"Shape","triangle",1000,0,"tri_key",100,"shape",0,1
"A15SBWIYJ9AGVZ",8750,368297,1280,735,1436,"3X66WABAJX29PVBH4FOZ1IWE55F3GX","22/10/2018@15:04:29","cued_first","Mozilla/5.0 (Macintosh; Intel Mac OS X 10_12_2) AppleWebKit/537.36 (KHTML, like Gecko) Chrome/69.0.3497.100 Safari/537.36",800,70,68,75,74,"top_right","top_left",1062,"blue","Switch","right",63,"Color","triangle",100,0,"blue_key",1000,"color",0,1
"A15SBWIYJ9AGVZ",8751,368297,1280,735,1436,"3X66WABAJX29PVBH4FOZ1IWE55F3GX","22/10/2018@15:04:29","cued_first","Mozilla/5.0 (Macintosh; Intel Mac OS X 10_12_2) AppleWebKit/537.36 (KHTML, like Gecko) Chrome/69.0.3497.100 Safari/537.36",800,70,68,75,74,"top_right","top_left",1713,"blue","Switch","left",64,"Shape","circle",100,0,"circle_key",1000,"shape",0,1
"A15SBWIYJ9AGVZ",8752,368297,1280,735,1436,"3X66WABAJX29PVBH4FOZ1IWE55F3GX","22/10/2018@15:04:29","cued_first","Mozilla/5.0 (Macintosh; Intel Mac OS X 10_12_2) AppleWebKit/537.36 (KHTML, like Gecko) Chrome/69.0.3497.100 Safari/537.36",800,70,68,75,74,"top_right","top_left",2024,"red","Switch","right",65,"Color","circle",1000,0,"red_key",100,"color",0,1
"A15SBWIYJ9AGVZ",8753,368297,1280,735,1436,"3X66WABAJX29PVBH4FOZ1IWE55F3GX","22/10/2018@15:04:29","cued_first","Mozilla/5.0 (Macintosh; Intel Mac OS X 10_12_2) AppleWebKit/537.36 (KHTML, like Gecko) Chrome/69.0.3497.100 Safari/537.36",800,70,68,75,74,"top_right","top_left",848,"blue","Switch","left",66,"Shape","triangle",1000,0,"tri_key",100,"shape",0,1
"A15SBWIYJ9AGVZ",8754,368297,1280,735,1436,"3X66WABAJX29PVBH4FOZ1IWE55F3GX","22/10/2018@15:04:29","cued_first","Mozilla/5.0 (Macintosh; Intel Mac OS X 10_12_2) AppleWebKit/537.36 (KHTML, like Gecko) Chrome/69.0.3497.100 Safari/537.36",800,70,68,75,74,"top_right","top_left",1975,"red","Repeat","left",67,"Shape","circle",100,0,"circle_key",1000,"shape",0,0
"A15SBWIYJ9AGVZ",8757,368297,1280,735,1436,"3X66WABAJX29PVBH4FOZ1IWE55F3GX","22/10/2018@15:04:29","cued_first","Mozilla/5.0 (Macintosh; Intel Mac OS X 10_12_2) AppleWebKit/537.36 (KHTML, like Gecko) Chrome/69.0.3497.100 Safari/537.36",800,70,68,75,74,"top_right","top_left",592,"blue","Repeat","left",70,"Shape","triangle",100,0,"tri_key",1000,"shape",0,0
"A15SBWIYJ9AGVZ",8758,368297,1280,735,1436,"3X66WABAJX29PVBH4FOZ1IWE55F3GX","22/10/2018@15:04:29","cued_first","Mozilla/5.0 (Macintosh; Intel Mac OS X 10_12_2) AppleWebKit/537.36 (KHTML, like Gecko) Chrome/69.0.3497.100 Safari/537.36",800,70,68,75,74,"top_right","top_left",1082,"blue","Switch","right",71,"Color","triangle",100,0,"blue_key",1000,"color",0,1
"A15SBWIYJ9AGVZ",8759,368297,1280,735,1436,"3X66WABAJX29PVBH4FOZ1IWE55F3GX","22/10/2018@15:04:29","cued_first","Mozilla/5.0 (Macintosh; Intel Mac OS X 10_12_2) AppleWebKit/537.36 (KHTML, like Gecko) Chrome/69.0.3497.100 Safari/537.36",800,70,68,75,74,"top_right","top_left",823,"blue","Repeat","right",72,"Color","circle",1000,0,"blue_key",100,"color",0,0
"A15SBWIYJ9AGVZ",8760,368297,1280,735,1436,"3X66WABAJX29PVBH4FOZ1IWE55F3GX","22/10/2018@15:04:29","cued_first","Mozilla/5.0 (Macintosh; Intel Mac OS X 10_12_2) AppleWebKit/537.36 (KHTML, like Gecko) Chrome/69.0.3497.100 Safari/537.36",800,70,68,75,74,"top_right","top_left",972,"red","Switch","left",73,"Shape","triangle",1000,0,"tri_key",100,"shape",0,1
"A15SBWIYJ9AGVZ",8761,368297,1280,735,1436,"3X66WABAJX29PVBH4FOZ1IWE55F3GX","22/10/2018@15:04:29","cued_first","Mozilla/5.0 (Macintosh; Intel Mac OS X 10_12_2) AppleWebKit/537.36 (KHTML, like Gecko) Chrome/69.0.3497.100 Safari/537.36",800,70,68,75,74,"top_right","top_left",955,"blue","Repeat","left",74,"Shape","triangle",100,0,"tri_key",1000,"shape",0,0
"A15SBWIYJ9AGVZ",8762,368297,1280,735,1436,"3X66WABAJX29PVBH4FOZ1IWE55F3GX","22/10/2018@15:04:29","cued_first","Mozilla/5.0 (Macintosh; Intel Mac OS X 10_12_2) AppleWebKit/537.36 (KHTML, like Gecko) Chrome/69.0.3497.100 Safari/537.36",800,70,68,75,74,"top_right","top_left",1800,"blue","Repeat","left",75,"Shape","circle",1000,0,"circle_key",100,"shape",0,0
"A15SBWIYJ9AGVZ",8763,368297,1280,735,1436,"3X66WABAJX29PVBH4FOZ1IWE55F3GX","22/10/2018@15:04:29","cued_first","Mozilla/5.0 (Macintosh; Intel Mac OS X 10_12_2) AppleWebKit/537.36 (KHTML, like Gecko) Chrome/69.0.3497.100 Safari/537.36",800,70,68,75,74,"top_right","top_left",813,"red","Switch","right",76,"Color","triangle",100,0,"red_key",1000,"color",0,1
"A15SBWIYJ9AGVZ",8764,368297,1280,735,1436,"3X66WABAJX29PVBH4FOZ1IWE55F3GX","22/10/2018@15:04:29","cued_first","Mozilla/5.0 (Macintosh; Intel Mac OS X 10_12_2) AppleWebKit/537.36 (KHTML, like Gecko) Chrome/69.0.3497.100 Safari/537.36",800,70,68,75,74,"top_right","top_left",707,"red","Repeat","right",77,"Color","triangle",1000,0,"red_key",100,"color",0,0
"A15SBWIYJ9AGVZ",8765,368297,1280,735,1436,"3X66WABAJX29PVBH4FOZ1IWE55F3GX","22/10/2018@15:04:29","cued_first","Mozilla/5.0 (Macintosh; Intel Mac OS X 10_12_2) AppleWebKit/537.36 (KHTML, like Gecko) Chrome/69.0.3497.100 Safari/537.36",800,70,68,75,74,"top_right","top_left",1551,"blue","Switch","left",78,"Shape","circle",1000,0,"circle_key",100,"shape",0,1
"A15SBWIYJ9AGVZ",8766,368297,1280,735,1436,"3X66WABAJX29PVBH4FOZ1IWE55F3GX","22/10/2018@15:04:29","cued_first","Mozilla/5.0 (Macintosh; Intel Mac OS X 10_12_2) AppleWebKit/537.36 (KHTML, like Gecko) Chrome/69.0.3497.100 Safari/537.36",800,70,68,75,74,"top_right","top_left",750,"blue","Switch","right",79,"Color","triangle",1000,0,"blue_key",100,"color",0,1
"A15SBWIYJ9AGVZ",8767,368297,1280,735,1436,"3X66WABAJX29PVBH4FOZ1IWE55F3GX","22/10/2018@15:04:29","cued_first","Mozilla/5.0 (Macintosh; Intel Mac OS X 10_12_2) AppleWebKit/537.36 (KHTML, like Gecko) Chrome/69.0.3497.100 Safari/537.36",800,70,68,75,74,"top_right","top_left",677,"red","Repeat","right",80,"Color","circle",1000,0,"red_key",100,"color",0,0
"A15SBWIYJ9AGVZ",8768,368297,1280,735,1436,"3X66WABAJX29PVBH4FOZ1IWE55F3GX","22/10/2018@15:04:29","cued_first","Mozilla/5.0 (Macintosh; Intel Mac OS X 10_12_2) AppleWebKit/537.36 (KHTML, like Gecko) Chrome/69.0.3497.100 Safari/537.36",800,70,68,75,74,"top_right","top_left",831,"blue","Switch","left",81,"Shape","triangle",100,0,"tri_key",1000,"shape",0,1
"A15SBWIYJ9AGVZ",8769,368297,1280,735,1436,"3X66WABAJX29PVBH4FOZ1IWE55F3GX","22/10/2018@15:04:29","cued_first","Mozilla/5.0 (Macintosh; Intel Mac OS X 10_12_2) AppleWebKit/537.36 (KHTML, like Gecko) Chrome/69.0.3497.100 Safari/537.36",800,70,68,75,74,"top_right","top_left",700,"red","Repeat","left",82,"Shape","triangle",1000,0,"tri_key",100,"shape",0,0
"A15SBWIYJ9AGVZ",8770,368297,1280,735,1436,"3X66WABAJX29PVBH4FOZ1IWE55F3GX","22/10/2018@15:04:29","cued_first","Mozilla/5.0 (Macintosh; Intel Mac OS X 10_12_2) AppleWebKit/537.36 (KHTML, like Gecko) Chrome/69.0.3497.100 Safari/537.36",800,70,68,75,74,"top_right","top_left",658,"blue","Repeat","left",83,"Shape","triangle",1000,0,"tri_key",100,"shape",0,0
"A15SBWIYJ9AGVZ",8771,368297,1280,735,1436,"3X66WABAJX29PVBH4FOZ1IWE55F3GX","22/10/2018@15:04:29","cued_first","Mozilla/5.0 (Macintosh; Intel Mac OS X 10_12_2) AppleWebKit/537.36 (KHTML, like Gecko) Chrome/69.0.3497.100 Safari/537.36",800,70,68,75,74,"top_right","top_left",714,"blue","Repeat","left",84,"Shape","circle",1000,0,"circle_key",100,"shape",0,0
"A15SBWIYJ9AGVZ",8772,368297,1280,735,1436,"3X66WABAJX29PVBH4FOZ1IWE55F3GX","22/10/2018@15:04:29","cued_first","Mozilla/5.0 (Macintosh; Intel Mac OS X 10_12_2) AppleWebKit/537.36 (KHTML, like Gecko) Chrome/69.0.3497.100 Safari/537.36",800,70,68,75,74,"top_right","top_left",595,"red","Repeat","left",85,"Shape","circle",1000,0,"circle_key",100,"shape",0,0
"A15SBWIYJ9AGVZ",8773,368297,1280,735,1436,"3X66WABAJX29PVBH4FOZ1IWE55F3GX","22/10/2018@15:04:29","cued_first","Mozilla/5.0 (Macintosh; Intel Mac OS X 10_12_2) AppleWebKit/537.36 (KHTML, like Gecko) Chrome/69.0.3497.100 Safari/537.36",800,70,68,75,74,"top_right","top_left",895,"blue","Switch","right",86,"Color","triangle",100,0,"blue_key",1000,"color",0,1
"A15SBWIYJ9AGVZ",8774,368297,1280,735,1436,"3X66WABAJX29PVBH4FOZ1IWE55F3GX","22/10/2018@15:04:29","cued_first","Mozilla/5.0 (Macintosh; Intel Mac OS X 10_12_2) AppleWebKit/537.36 (KHTML, like Gecko) Chrome/69.0.3497.100 Safari/537.36",800,70,68,75,74,"top_right","top_left",728,"red","Switch","left",87,"Shape","circle",100,0,"circle_key",1000,"shape",0,1
"A15SBWIYJ9AGVZ",8775,368297,1280,735,1436,"3X66WABAJX29PVBH4FOZ1IWE55F3GX","22/10/2018@15:04:29","cued_first","Mozilla/5.0 (Macintosh; Intel Mac OS X 10_12_2) AppleWebKit/537.36 (KHTML, like Gecko) Chrome/69.0.3497.100 Safari/537.36",800,70,68,75,74,"top_right","top_left",1579,"blue","Repeat","left",88,"Shape","circle",1000,0,"circle_key",100,"shape",0,0
"A15SBWIYJ9AGVZ",8776,368297,1280,735,1436,"3X66WABAJX29PVBH4FOZ1IWE55F3GX","22/10/2018@15:04:29","cued_first","Mozilla/5.0 (Macintosh; Intel Mac OS X 10_12_2) AppleWebKit/537.36 (KHTML, like Gecko) Chrome/69.0.3497.100 Safari/537.36",800,70,68,75,74,"top_right","top_left",630,"blue","Switch","right",89,"Color","circle",100,0,"blue_key",1000,"color",0,1
"A15SBWIYJ9AGVZ",8777,368297,1280,735,1436,"3X66WABAJX29PVBH4FOZ1IWE55F3GX","22/10/2018@15:04:29","cued_first","Mozilla/5.0 (Macintosh; Intel Mac OS X 10_12_2) AppleWebKit/537.36 (KHTML, like Gecko) Chrome/69.0.3497.100 Safari/537.36",800,70,68,75,74,"top_right","top_left",1070,"blue","Switch","left",90,"Shape","triangle",100,0,"tri_key",1000,"shape",0,1
"A15SBWIYJ9AGVZ",8778,368297,1280,735,1436,"3X66WABAJX29PVBH4FOZ1IWE55F3GX","22/10/2018@15:04:29","cued_first","Mozilla/5.0 (Macintosh; Intel Mac OS X 10_12_2) AppleWebKit/537.36 (KHTML, like Gecko) Chrome/69.0.3497.100 Safari/537.36",800,70,68,75,74,"top_right","top_left",1464,"blue","Repeat","left",91,"Shape","circle",1000,0,"circle_key",100,"shape",0,0
"A15SBWIYJ9AGVZ",8779,368297,1280,735,1436,"3X66WABAJX29PVBH4FOZ1IWE55F3GX","22/10/2018@15:04:29","cued_first","Mozilla/5.0 (Macintosh; Intel Mac OS X 10_12_2) AppleWebKit/537.36 (KHTML, like Gecko) Chrome/69.0.3497.100 Safari/537.36",800,70,68,75,74,"top_right","top_left",415,"red","Repeat","left",92,"Shape","circle",100,0,"circle_key",1000,"shape",0,0
"A15SBWIYJ9AGVZ",8780,368297,1280,735,1436,"3X66WABAJX29PVBH4FOZ1IWE55F3GX","22/10/2018@15:04:29","cued_first","Mozilla/5.0 (Macintosh; Intel Mac OS X 10_12_2) AppleWebKit/537.36 (KHTML, like Gecko) Chrome/69.0.3497.100 Safari/537.36",800,70,68,75,74,"top_right","top_left",814,"red","Switch","right",93,"Color","circle",1000,0,"red_key",100,"color",0,1
"A15SBWIYJ9AGVZ",8781,368297,1280,735,1436,"3X66WABAJX29PVBH4FOZ1IWE55F3GX","22/10/2018@15:04:29","cued_first","Mozilla/5.0 (Macintosh; Intel Mac OS X 10_12_2) AppleWebKit/537.36 (KHTML, like Gecko) Chrome/69.0.3497.100 Safari/537.36",800,70,68,75,74,"top_right","top_left",2007,"blue","Switch","left",94,"Shape","circle",1000,0,"circle_key",100,"shape",0,1
"A15SBWIYJ9AGVZ",8782,368297,1280,735,1436,"3X66WABAJX29PVBH4FOZ1IWE55F3GX","22/10/2018@15:04:29","cued_first","Mozilla/5.0 (Macintosh; Intel Mac OS X 10_12_2) AppleWebKit/537.36 (KHTML, like Gecko) Chrome/69.0.3497.100 Safari/537.36",800,70,68,75,74,"top_right","top_left",909,"red","Switch","right",95,"Color","triangle",1000,0,"red_key",100,"color",0,1
"A15SBWIYJ9AGVZ",8785,368297,1280,735,1436,"3X66WABAJX29PVBH4FOZ1IWE55F3GX","22/10/2018@15:04:29","cued_first","Mozilla/5.0 (Macintosh; Intel Mac OS X 10_12_2) AppleWebKit/537.36 (KHTML, like Gecko) Chrome/69.0.3497.100 Safari/537.36",800,70,68,75,74,"top_right","top_left",811,"blue","Repeat","left",98,"Shape","triangle",1000,0,"tri_key",100,"shape",0,0
"A15SBWIYJ9AGVZ",8786,368297,1280,735,1436,"3X66WABAJX29PVBH4FOZ1IWE55F3GX","22/10/2018@15:04:29","cued_first","Mozilla/5.0 (Macintosh; Intel Mac OS X 10_12_2) AppleWebKit/537.36 (KHTML, like Gecko) Chrome/69.0.3497.100 Safari/537.36",800,70,68,75,74,"top_right","top_left",455,"blue","Repeat","left",99,"Shape","triangle",1000,0,"tri_key",100,"shape",0,0
"A15SBWIYJ9AGVZ",8787,368297,1280,735,1436,"3X66WABAJX29PVBH4FOZ1IWE55F3GX","22/10/2018@15:04:29","cued_first","Mozilla/5.0 (Macintosh; Intel Mac OS X 10_12_2) AppleWebKit/537.36 (KHTML, like Gecko) Chrome/69.0.3497.100 Safari/537.36",800,70,68,75,74,"top_right","top_left",778,"blue","Switch","right",100,"Color","circle",100,0,"blue_key",1000,"color",0,1
"A15SBWIYJ9AGVZ",8790,368297,1280,735,1436,"3X66WABAJX29PVBH4FOZ1IWE55F3GX","22/10/2018@15:04:29","cued_first","Mozilla/5.0 (Macintosh; Intel Mac OS X 10_12_2) AppleWebKit/537.36 (KHTML, like Gecko) Chrome/69.0.3497.100 Safari/537.36",800,70,68,75,74,"top_right","top_left",1662,"blue","Repeat","right",103,"Color","circle",1000,0,"blue_key",100,"color",0,0
"A15SBWIYJ9AGVZ",8791,368297,1280,735,1436,"3X66WABAJX29PVBH4FOZ1IWE55F3GX","22/10/2018@15:04:29","cued_first","Mozilla/5.0 (Macintosh; Intel Mac OS X 10_12_2) AppleWebKit/537.36 (KHTML, like Gecko) Chrome/69.0.3497.100 Safari/537.36",800,70,68,75,74,"top_right","top_left",1249,"blue","Switch","left",104,"Shape","circle",1000,0,"circle_key",100,"shape",0,1
"A15SBWIYJ9AGVZ",8792,368297,1280,735,1436,"3X66WABAJX29PVBH4FOZ1IWE55F3GX","22/10/2018@15:04:29","cued_first","Mozilla/5.0 (Macintosh; Intel Mac OS X 10_12_2) AppleWebKit/537.36 (KHTML, like Gecko) Chrome/69.0.3497.100 Safari/537.36",800,70,68,75,74,"top_right","top_left",838,"blue","Repeat","left",105,"Shape","triangle",100,0,"tri_key",1000,"shape",0,0
"A15SBWIYJ9AGVZ",8793,368297,1280,735,1436,"3X66WABAJX29PVBH4FOZ1IWE55F3GX","22/10/2018@15:04:29","cued_first","Mozilla/5.0 (Macintosh; Intel Mac OS X 10_12_2) AppleWebKit/537.36 (KHTML, like Gecko) Chrome/69.0.3497.100 Safari/537.36",800,70,68,75,74,"top_right","top_left",851,"red","Repeat","left",106,"Shape","circle",1000,0,"circle_key",100,"shape",0,0
"A15SBWIYJ9AGVZ",8794,368297,1280,735,1436,"3X66WABAJX29PVBH4FOZ1IWE55F3GX","22/10/2018@15:04:29","cued_first","Mozilla/5.0 (Macintosh; Intel Mac OS X 10_12_2) AppleWebKit/537.36 (KHTML, like Gecko) Chrome/69.0.3497.100 Safari/537.36",800,70,68,75,74,"top_right","top_left",462,"blue","Switch","right",107,"Color","circle",100,0,"blue_key",1000,"color",0,1
"A15SBWIYJ9AGVZ",8795,368297,1280,735,1436,"3X66WABAJX29PVBH4FOZ1IWE55F3GX","22/10/2018@15:04:29","cued_first","Mozilla/5.0 (Macintosh; Intel Mac OS X 10_12_2) AppleWebKit/537.36 (KHTML, like Gecko) Chrome/69.0.3497.100 Safari/537.36",800,70,68,75,74,"top_right","top_left",1091,"blue","Repeat","right",108,"Color","circle",1000,0,"blue_key",100,"color",0,0
"A15SBWIYJ9AGVZ",8796,368297,1280,735,1436,"3X66WABAJX29PVBH4FOZ1IWE55F3GX","22/10/2018@15:04:29","cued_first","Mozilla/5.0 (Macintosh; Intel Mac OS X 10_12_2) AppleWebKit/537.36 (KHTML, like Gecko) Chrome/69.0.3497.100 Safari/537.36",800,70,68,75,74,"top_right","top_left",1047,"red","Switch","left",109,"Shape","triangle",1000,0,"tri_key",100,"shape",0,1
"A15SBWIYJ9AGVZ",8797,368297,1280,735,1436,"3X66WABAJX29PVBH4FOZ1IWE55F3GX","22/10/2018@15:04:29","cued_first","Mozilla/5.0 (Macintosh; Intel Mac OS X 10_12_2) AppleWebKit/537.36 (KHTML, like Gecko) Chrome/69.0.3497.100 Safari/537.36",800,70,68,75,74,"top_right","top_left",985,"blue","Repeat","left",110,"Shape","triangle",100,0,"tri_key",1000,"shape",0,0
"A15SBWIYJ9AGVZ",8798,368297,1280,735,1436,"3X66WABAJX29PVBH4FOZ1IWE55F3GX","22/10/2018@15:04:29","cued_first","Mozilla/5.0 (Macintosh; Intel Mac OS X 10_12_2) AppleWebKit/537.36 (KHTML, like Gecko) Chrome/69.0.3497.100 Safari/537.36",800,70,68,75,74,"top_right","top_left",551,"blue","Repeat","left",111,"Shape","circle",1000,0,"circle_key",100,"shape",0,0
"A15SBWIYJ9AGVZ",8799,368297,1280,735,1436,"3X66WABAJX29PVBH4FOZ1IWE55F3GX","22/10/2018@15:04:29","cued_first","Mozilla/5.0 (Macintosh; Intel Mac OS X 10_12_2) AppleWebKit/537.36 (KHTML, like Gecko) Chrome/69.0.3497.100 Safari/537.36",800,70,68,75,74,"top_right","top_left",1077,"red","Switch","right",112,"Color","triangle",1000,0,"red_key",100,"color",0,1
"A15SBWIYJ9AGVZ",8800,368297,1280,735,1436,"3X66WABAJX29PVBH4FOZ1IWE55F3GX","22/10/2018@15:04:29","cued_first","Mozilla/5.0 (Macintosh; Intel Mac OS X 10_12_2) AppleWebKit/537.36 (KHTML, like Gecko) Chrome/69.0.3497.100 Safari/537.36",800,70,68,75,74,"top_right","top_left",1523,"red","Switch","left",113,"Shape","circle",1000,0,"circle_key",100,"shape",0,1
"A15SBWIYJ9AGVZ",8801,368297,1280,735,1436,"3X66WABAJX29PVBH4FOZ1IWE55F3GX","22/10/2018@15:04:29","cued_first","Mozilla/5.0 (Macintosh; Intel Mac OS X 10_12_2) AppleWebKit/537.36 (KHTML, like Gecko) Chrome/69.0.3497.100 Safari/537.36",800,70,68,75,74,"top_right","top_left",630,"blue","Switch","right",114,"Color","circle",100,0,"blue_key",1000,"color",0,1
"A15SBWIYJ9AGVZ",8802,368297,1280,735,1436,"3X66WABAJX29PVBH4FOZ1IWE55F3GX","22/10/2018@15:04:29","cued_first","Mozilla/5.0 (Macintosh; Intel Mac OS X 10_12_2) AppleWebKit/537.36 (KHTML, like Gecko) Chrome/69.0.3497.100 Safari/537.36",800,70,68,75,74,"top_right","top_left",421,"red","Repeat","right",115,"Color","triangle",100,0,"red_key",1000,"color",0,0
"A15SBWIYJ9AGVZ",8803,368297,1280,735,1436,"3X66WABAJX29PVBH4FOZ1IWE55F3GX","22/10/2018@15:04:29","cued_first","Mozilla/5.0 (Macintosh; Intel Mac OS X 10_12_2) AppleWebKit/537.36 (KHTML, like Gecko) Chrome/69.0.3497.100 Safari/537.36",800,70,68,75,74,"top_right","top_left",1501,"red","Switch","left",116,"Shape","triangle",1000,0,"tri_key",100,"shape",0,1
"A15SBWIYJ9AGVZ",8804,368297,1280,735,1436,"3X66WABAJX29PVBH4FOZ1IWE55F3GX","22/10/2018@15:04:29","cued_first","Mozilla/5.0 (Macintosh; Intel Mac OS X 10_12_2) AppleWebKit/537.36 (KHTML, like Gecko) Chrome/69.0.3497.100 Safari/537.36",800,70,68,75,74,"top_right","top_left",640,"red","Repeat","left",117,"Shape","circle",100,0,"circle_key",1000,"shape",0,0
"A15SBWIYJ9AGVZ",8805,368297,1280,735,1436,"3X66WABAJX29PVBH4FOZ1IWE55F3GX","22/10/2018@15:04:29","cued_first","Mozilla/5.0 (Macintosh; Intel Mac OS X 10_12_2) AppleWebKit/537.36 (KHTML, like Gecko) Chrome/69.0.3497.100 Safari/537.36",800,70,68,75,74,"top_right","top_left",1694,"red","Repeat","left",118,"Shape","triangle",1000,0,"tri_key",100,"shape",0,0
"A15SBWIYJ9AGVZ",8806,368297,1280,735,1436,"3X66WABAJX29PVBH4FOZ1IWE55F3GX","22/10/2018@15:04:29","cued_first","Mozilla/5.0 (Macintosh; Intel Mac OS X 10_12_2) AppleWebKit/537.36 (KHTML, like Gecko) Chrome/69.0.3497.100 Safari/537.36",800,70,68,75,74,"top_right","top_left",1006,"red","Switch","right",119,"Color","circle",1000,0,"red_key",100,"color",0,1
"A15SBWIYJ9AGVZ",8807,368297,1280,735,1436,"3X66WABAJX29PVBH4FOZ1IWE55F3GX","22/10/2018@15:04:29","cued_first","Mozilla/5.0 (Macintosh; Intel Mac OS X 10_12_2) AppleWebKit/537.36 (KHTML, like Gecko) Chrome/69.0.3497.100 Safari/537.36",800,70,68,75,74,"top_right","top_left",880,"red","Repeat","right",120,"Color","circle",1000,0,"red_key",100,"color",0,0
"A15SBWIYJ9AGVZ",8808,368297,1280,735,1436,"3X66WABAJX29PVBH4FOZ1IWE55F3GX","22/10/2018@15:04:29","cued_first","Mozilla/5.0 (Macintosh; Intel Mac OS X 10_12_2) AppleWebKit/537.36 (KHTML, like Gecko) Chrome/69.0.3497.100 Safari/537.36",800,70,68,75,74,"top_right","top_left",761,"red","Switch","left",121,"Shape","triangle",100,0,"tri_key",1000,"shape",0,1
"A15SBWIYJ9AGVZ",8809,368297,1280,735,1436,"3X66WABAJX29PVBH4FOZ1IWE55F3GX","22/10/2018@15:04:29","cued_first","Mozilla/5.0 (Macintosh; Intel Mac OS X 10_12_2) AppleWebKit/537.36 (KHTML, like Gecko) Chrome/69.0.3497.100 Safari/537.36",800,70,68,75,74,"top_right","top_left",916,"blue","Repeat","left",122,"Shape","circle",1000,0,"circle_key",100,"shape",0,0
"A15SBWIYJ9AGVZ",8810,368297,1280,735,1436,"3X66WABAJX29PVBH4FOZ1IWE55F3GX","22/10/2018@15:04:29","cued_first","Mozilla/5.0 (Macintosh; Intel Mac OS X 10_12_2) AppleWebKit/537.36 (KHTML, like Gecko) Chrome/69.0.3497.100 Safari/537.36",800,70,68,75,74,"top_right","top_left",472,"red","Switch","right",123,"Color","circle",100,0,"red_key",1000,"color",0,1
"A15SBWIYJ9AGVZ",8811,368297,1280,735,1436,"3X66WABAJX29PVBH4FOZ1IWE55F3GX","22/10/2018@15:04:29","cued_first","Mozilla/5.0 (Macintosh; Intel Mac OS X 10_12_2) AppleWebKit/537.36 (KHTML, like Gecko) Chrome/69.0.3497.100 Safari/537.36",800,70,68,75,74,"top_right","top_left",960,"red","Repeat","right",124,"Color","triangle",1000,0,"red_key",100,"color",0,0
"A15SBWIYJ9AGVZ",8812,368297,1280,735,1436,"3X66WABAJX29PVBH4FOZ1IWE55F3GX","22/10/2018@15:04:29","cued_first","Mozilla/5.0 (Macintosh; Intel Mac OS X 10_12_2) AppleWebKit/537.36 (KHTML, like Gecko) Chrome/69.0.3497.100 Safari/537.36",800,70,68,75,74,"top_right","top_left",750,"red","Switch","left",125,"Shape","triangle",100,0,"tri_key",1000,"shape",0,1
"A15SBWIYJ9AGVZ",8813,368297,1280,735,1436,"3X66WABAJX29PVBH4FOZ1IWE55F3GX","22/10/2018@15:04:29","cued_first","Mozilla/5.0 (Macintosh; Intel Mac OS X 10_12_2) AppleWebKit/537.36 (KHTML, like Gecko) Chrome/69.0.3497.100 Safari/537.36",800,70,68,75,74,"top_right","top_left",2198,"red","Switch","right",126,"Color","triangle",100,0,"red_key",1000,"color",0,1
"A15SBWIYJ9AGVZ",8814,368297,1280,735,1436,"3X66WABAJX29PVBH4FOZ1IWE55F3GX","22/10/2018@15:04:29","cued_first","Mozilla/5.0 (Macintosh; Intel Mac OS X 10_12_2) AppleWebKit/537.36 (KHTML, like Gecko) Chrome/69.0.3497.100 Safari/537.36",800,70,68,75,74,"top_right","top_left",803,"blue","Switch","left",127,"Shape","circle",1000,0,"circle_key",100,"shape",0,1
"A15SBWIYJ9AGVZ",8815,368297,1280,735,1436,"3X66WABAJX29PVBH4FOZ1IWE55F3GX","22/10/2018@15:04:29","cued_first","Mozilla/5.0 (Macintosh; Intel Mac OS X 10_12_2) AppleWebKit/537.36 (KHTML, like Gecko) Chrome/69.0.3497.100 Safari/537.36",800,70,68,75,74,"top_right","top_left",1106,"blue","Switch","right",128,"Color","triangle",100,0,"blue_key",1000,"color",0,1
"A15SBWIYJ9AGVZ",8816,368297,1280,735,1436,"3X66WABAJX29PVBH4FOZ1IWE55F3GX","22/10/2018@15:04:29","cued_first","Mozilla/5.0 (Macintosh; Intel Mac OS X 10_12_2) AppleWebKit/537.36 (KHTML, like Gecko) Chrome/69.0.3497.100 Safari/537.36",800,70,68,75,74,"top_right","top_left",1198,"blue","Switch","left",129,"Shape","triangle",1000,0,"tri_key",100,"shape",0,1
"A15SBWIYJ9AGVZ",8817,368297,1280,735,1436,"3X66WABAJX29PVBH4FOZ1IWE55F3GX","22/10/2018@15:04:29","cued_first","Mozilla/5.0 (Macintosh; Intel Mac OS X 10_12_2) AppleWebKit/537.36 (KHTML, like Gecko) Chrome/69.0.3497.100 Safari/537.36",800,70,68,75,74,"top_right","top_left",1488,"red","Switch","right",130,"Color","circle",100,0,"red_key",1000,"color",0,1
"A15SBWIYJ9AGVZ",8818,368297,1280,735,1436,"3X66WABAJX29PVBH4FOZ1IWE55F3GX","22/10/2018@15:04:29","cued_first","Mozilla/5.0 (Macintosh; Intel Mac OS X 10_12_2) AppleWebKit/537.36 (KHTML, like Gecko) Chrome/69.0.3497.100 Safari/537.36",800,70,68,75,74,"top_right","top_left",853,"red","Switch","left",131,"Shape","circle",100,0,"circle_key",1000,"shape",0,1
"A15SBWIYJ9AGVZ",8819,368297,1280,735,1436,"3X66WABAJX29PVBH4FOZ1IWE55F3GX","22/10/2018@15:04:29","cued_first","Mozilla/5.0 (Macintosh; Intel Mac OS X 10_12_2) AppleWebKit/537.36 (KHTML, like Gecko) Chrome/69.0.3497.100 Safari/537.36",800,70,68,75,74,"top_right","top_left",993,"blue","Repeat","left",132,"Shape","triangle",100,0,"tri_key",1000,"shape",0,0
"A15SBWIYJ9AGVZ",8820,368297,1280,735,1436,"3X66WABAJX29PVBH4FOZ1IWE55F3GX","22/10/2018@15:04:29","cued_first","Mozilla/5.0 (Macintosh; Intel Mac OS X 10_12_2) AppleWebKit/537.36 (KHTML, like Gecko) Chrome/69.0.3497.100 Safari/537.36",800,70,68,75,74,"top_right","top_left",567,"red","Repeat","left",133,"Shape","triangle",100,0,"tri_key",1000,"shape",0,0
"A15SBWIYJ9AGVZ",8821,368297,1280,735,1436,"3X66WABAJX29PVBH4FOZ1IWE55F3GX","22/10/2018@15:04:29","cued_first","Mozilla/5.0 (Macintosh; Intel Mac OS X 10_12_2) AppleWebKit/537.36 (KHTML, like Gecko) Chrome/69.0.3497.100 Safari/537.36",800,70,68,75,74,"top_right","top_left",846,"blue","Switch","right",134,"Color","circle",1000,0,"blue_key",100,"color",0,1
"A15SBWIYJ9AGVZ",8822,368297,1280,735,1436,"3X66WABAJX29PVBH4FOZ1IWE55F3GX","22/10/2018@15:04:29","cued_first","Mozilla/5.0 (Macintosh; Intel Mac OS X 10_12_2) AppleWebKit/537.36 (KHTML, like Gecko) Chrome/69.0.3497.100 Safari/537.36",800,70,68,75,74,"top_right","top_left",2164,"red","Switch","left",135,"Shape","circle",100,0,"circle_key",1000,"shape",0,1
"A15SBWIYJ9AGVZ",8823,368297,1280,735,1436,"3X66WABAJX29PVBH4FOZ1IWE55F3GX","22/10/2018@15:04:29","cued_first","Mozilla/5.0 (Macintosh; Intel Mac OS X 10_12_2) AppleWebKit/537.36 (KHTML, like Gecko) Chrome/69.0.3497.100 Safari/537.36",800,70,68,75,74,"top_right","top_left",1236,"blue","Switch","right",136,"Color","triangle",1000,0,"blue_key",100,"color",0,1
"A15SBWIYJ9AGVZ",8824,368297,1280,735,1436,"3X66WABAJX29PVBH4FOZ1IWE55F3GX","22/10/2018@15:04:29","cued_first","Mozilla/5.0 (Macintosh; Intel Mac OS X 10_12_2) AppleWebKit/537.36 (KHTML, like Gecko) Chrome/69.0.3497.100 Safari/537.36",800,70,68,75,74,"top_right","top_left",1215,"red","Repeat","right",137,"Color","triangle",100,0,"red_key",1000,"color",0,0
"A15SBWIYJ9AGVZ",8825,368297,1280,735,1436,"3X66WABAJX29PVBH4FOZ1IWE55F3GX","22/10/2018@15:04:29","cued_first","Mozilla/5.0 (Macintosh; Intel Mac OS X 10_12_2) AppleWebKit/537.36 (KHTML, like Gecko) Chrome/69.0.3497.100 Safari/537.36",800,70,68,75,74,"top_right","top_left",450,"red","Switch","left",138,"Shape","triangle",100,0,"tri_key",1000,"shape",0,1
"A15SBWIYJ9AGVZ",8826,368297,1280,735,1436,"3X66WABAJX29PVBH4FOZ1IWE55F3GX","22/10/2018@15:04:29","cued_first","Mozilla/5.0 (Macintosh; Intel Mac OS X 10_12_2) AppleWebKit/537.36 (KHTML, like Gecko) Chrome/69.0.3497.100 Safari/537.36",800,70,68,75,74,"top_right","top_left",640,"red","Repeat","left",139,"Shape","triangle",100,0,"tri_key",1000,"shape",0,0
"A15SBWIYJ9AGVZ",8827,368297,1280,735,1436,"3X66WABAJX29PVBH4FOZ1IWE55F3GX","22/10/2018@15:04:29","cued_first","Mozilla/5.0 (Macintosh; Intel Mac OS X 10_12_2) AppleWebKit/537.36 (KHTML, like Gecko) Chrome/69.0.3497.100 Safari/537.36",800,70,68,75,74,"top_right","top_left",972,"blue","Switch","right",140,"Color","circle",1000,0,"blue_key",100,"color",0,1
"A15SBWIYJ9AGVZ",8828,368297,1280,735,1436,"3X66WABAJX29PVBH4FOZ1IWE55F3GX","22/10/2018@15:04:29","cued_first","Mozilla/5.0 (Macintosh; Intel Mac OS X 10_12_2) AppleWebKit/537.36 (KHTML, like Gecko) Chrome/69.0.3497.100 Safari/537.36",800,70,68,75,74,"top_right","top_left",1086,"red","Switch","left",141,"Shape","circle",1000,0,"circle_key",100,"shape",0,1
"A15SBWIYJ9AGVZ",8829,368297,1280,735,1436,"3X66WABAJX29PVBH4FOZ1IWE55F3GX","22/10/2018@15:04:29","cued_first","Mozilla/5.0 (Macintosh; Intel Mac OS X 10_12_2) AppleWebKit/537.36 (KHTML, like Gecko) Chrome/69.0.3497.100 Safari/537.36",800,70,68,75,74,"top_right","top_left",1262,"blue","Switch","right",142,"Color","circle",1000,0,"blue_key",100,"color",0,1
"A15SBWIYJ9AGVZ",8832,368297,1280,735,1436,"3X66WABAJX29PVBH4FOZ1IWE55F3GX","22/10/2018@15:04:29","cued_first","Mozilla/5.0 (Macintosh; Intel Mac OS X 10_12_2) AppleWebKit/537.36 (KHTML, like Gecko) Chrome/69.0.3497.100 Safari/537.36",800,70,68,75,74,"top_right","top_left",1000,"red","Repeat","right",145,"Color","circle",100,0,"red_key",1000,"color",0,0
"A15SBWIYJ9AGVZ",8833,368297,1280,735,1436,"3X66WABAJX29PVBH4FOZ1IWE55F3GX","22/10/2018@15:04:29","cued_first","Mozilla/5.0 (Macintosh; Intel Mac OS X 10_12_2) AppleWebKit/537.36 (KHTML, like Gecko) Chrome/69.0.3497.100 Safari/537.36",800,70,68,75,74,"top_right","top_left",646,"red","Repeat","right",146,"Color","triangle",1000,0,"red_key",100,"color",0,0
"A15SBWIYJ9AGVZ",8834,368297,1280,735,1436,"3X66WABAJX29PVBH4FOZ1IWE55F3GX","22/10/2018@15:04:29","cued_first","Mozilla/5.0 (Macintosh; Intel Mac OS X 10_12_2) AppleWebKit/537.36 (KHTML, like Gecko) Chrome/69.0.3497.100 Safari/537.36",800,70,68,75,74,"top_right","top_left",1218,"red","Switch","left",147,"Shape","triangle",1000,0,"tri_key",100,"shape",0,1
"A15SBWIYJ9AGVZ",8835,368297,1280,735,1436,"3X66WABAJX29PVBH4FOZ1IWE55F3GX","22/10/2018@15:04:29","cued_first","Mozilla/5.0 (Macintosh; Intel Mac OS X 10_12_2) AppleWebKit/537.36 (KHTML, like Gecko) Chrome/69.0.3497.100 Safari/537.36",800,70,68,75,74,"top_right","top_left",1458,"blue","Switch","right",148,"Color","circle",100,0,"blue_key",1000,"color",0,1
"A15SBWIYJ9AGVZ",8836,368297,1280,735,1436,"3X66WABAJX29PVBH4FOZ1IWE55F3GX","22/10/2018@15:04:29","cued_first","Mozilla/5.0 (Macintosh; Intel Mac OS X 10_12_2) AppleWebKit/537.36 (KHTML, like Gecko) Chrome/69.0.3497.100 Safari/537.36",800,70,68,75,74,"top_right","top_left",791,"red","Repeat","right",149,"Color","circle",1000,0,"red_key",100,"color",0,0
"A15SBWIYJ9AGVZ",8837,368297,1280,735,1436,"3X66WABAJX29PVBH4FOZ1IWE55F3GX","22/10/2018@15:04:29","cued_first","Mozilla/5.0 (Macintosh; Intel Mac OS X 10_12_2) AppleWebKit/537.36 (KHTML, like Gecko) Chrome/69.0.3497.100 Safari/537.36",800,70,68,75,74,"top_right","top_left",1067,"red","Switch","left",150,"Shape","circle",1000,0,"circle_key",100,"shape",0,1
"A15SBWIYJ9AGVZ",8838,368297,1280,735,1436,"3X66WABAJX29PVBH4FOZ1IWE55F3GX","22/10/2018@15:04:29","cued_first","Mozilla/5.0 (Macintosh; Intel Mac OS X 10_12_2) AppleWebKit/537.36 (KHTML, like Gecko) Chrome/69.0.3497.100 Safari/537.36",800,70,68,75,74,"top_right","top_left",1268,"blue","Repeat","left",151,"Shape","circle",100,0,"circle_key",1000,"shape",0,0
"A15SBWIYJ9AGVZ",8839,368297,1280,735,1436,"3X66WABAJX29PVBH4FOZ1IWE55F3GX","22/10/2018@15:04:29","cued_first","Mozilla/5.0 (Macintosh; Intel Mac OS X 10_12_2) AppleWebKit/537.36 (KHTML, like Gecko) Chrome/69.0.3497.100 Safari/537.36",800,70,68,75,74,"top_right","top_left",670,"blue","Repeat","left",152,"Shape","triangle",1000,0,"tri_key",100,"shape",0,0
"A15SBWIYJ9AGVZ",8840,368297,1280,735,1436,"3X66WABAJX29PVBH4FOZ1IWE55F3GX","22/10/2018@15:04:29","cued_first","Mozilla/5.0 (Macintosh; Intel Mac OS X 10_12_2) AppleWebKit/537.36 (KHTML, like Gecko) Chrome/69.0.3497.100 Safari/537.36",800,70,68,75,74,"top_right","top_left",1522,"red","Repeat","left",153,"Shape","circle",100,0,"circle_key",1000,"shape",0,0
"A15SBWIYJ9AGVZ",8841,368297,1280,735,1436,"3X66WABAJX29PVBH4FOZ1IWE55F3GX","22/10/2018@15:04:29","cued_first","Mozilla/5.0 (Macintosh; Intel Mac OS X 10_12_2) AppleWebKit/537.36 (KHTML, like Gecko) Chrome/69.0.3497.100 Safari/537.36",800,70,68,75,74,"top_right","top_left",476,"red","Switch","right",154,"Color","circle",100,0,"red_key",1000,"color",0,1
"A15SBWIYJ9AGVZ",8842,368297,1280,735,1436,"3X66WABAJX29PVBH4FOZ1IWE55F3GX","22/10/2018@15:04:29","cued_first","Mozilla/5.0 (Macintosh; Intel Mac OS X 10_12_2) AppleWebKit/537.36 (KHTML, like Gecko) Chrome/69.0.3497.100 Safari/537.36",800,70,68,75,74,"top_right","top_left",1027,"blue","Repeat","right",155,"Color","circle",1000,0,"blue_key",100,"color",0,0
"A15SBWIYJ9AGVZ",8843,368297,1280,735,1436,"3X66WABAJX29PVBH4FOZ1IWE55F3GX","22/10/2018@15:04:29","cued_first","Mozilla/5.0 (Macintosh; Intel Mac OS X 10_12_2) AppleWebKit/537.36 (KHTML, like Gecko) Chrome/69.0.3497.100 Safari/537.36",800,70,68,75,74,"top_right","top_left",859,"blue","Switch","left",156,"Shape","circle",1000,0,"circle_key",100,"shape",0,1
"A15SBWIYJ9AGVZ",8844,368297,1280,735,1436,"3X66WABAJX29PVBH4FOZ1IWE55F3GX","22/10/2018@15:04:29","cued_first","Mozilla/5.0 (Macintosh; Intel Mac OS X 10_12_2) AppleWebKit/537.36 (KHTML, like Gecko) Chrome/69.0.3497.100 Safari/537.36",800,70,68,75,74,"top_right","top_left",613,"red","Switch","right",157,"Color","circle",100,0,"red_key",1000,"color",0,1
"A15SBWIYJ9AGVZ",8845,368297,1280,735,1436,"3X66WABAJX29PVBH4FOZ1IWE55F3GX","22/10/2018@15:04:29","cued_first","Mozilla/5.0 (Macintosh; Intel Mac OS X 10_12_2) AppleWebKit/537.36 (KHTML, like Gecko) Chrome/69.0.3497.100 Safari/537.36",800,70,68,75,74,"top_right","top_left",602,"blue","Repeat","right",158,"Color","circle",1000,0,"blue_key",100,"color",0,0
"A15SBWIYJ9AGVZ",8846,368297,1280,735,1436,"3X66WABAJX29PVBH4FOZ1IWE55F3GX","22/10/2018@15:04:29","cued_first","Mozilla/5.0 (Macintosh; Intel Mac OS X 10_12_2) AppleWebKit/537.36 (KHTML, like Gecko) Chrome/69.0.3497.100 Safari/537.36",800,70,68,75,74,"top_right","top_left",374,"red","Switch","left",159,"Shape","circle",100,0,"circle_key",1000,"shape",0,1
"A15SBWIYJ9AGVZ",8847,368297,1280,735,1436,"3X66WABAJX29PVBH4FOZ1IWE55F3GX","22/10/2018@15:04:29","cued_first","Mozilla/5.0 (Macintosh; Intel Mac OS X 10_12_2) AppleWebKit/537.36 (KHTML, like Gecko) Chrome/69.0.3497.100 Safari/537.36",800,70,68,75,74,"top_right","top_left",1654,"blue","Switch","right",160,"Color","circle",1000,0,"blue_key",100,"color",0,1
"A16G6PPH1INQL8",1969,461738,1366,708,1280,"33F859I567XSSMA53ELN416R8V2BHO","22/10/2018@15:27:52","rvts_first","Mozilla/5.0 (Windows NT 10.0; Win64; x64) AppleWebKit/537.36 (KHTML, like Gecko) Chrome/70.0.3538.67 Safari/537.36",768,70,68,74,75,"top_right","top_left",1049,"blue","Switch","left",2,"Shape","circle",100,0,"circle_key",1000,"shape",0,1
"A16G6PPH1INQL8",1970,461738,1366,708,1280,"33F859I567XSSMA53ELN416R8V2BHO","22/10/2018@15:27:52","rvts_first","Mozilla/5.0 (Windows NT 10.0; Win64; x64) AppleWebKit/537.36 (KHTML, like Gecko) Chrome/70.0.3538.67 Safari/537.36",768,70,68,74,75,"top_right","top_left",1202,"red","Repeat","left",3,"Shape","triangle",1000,0,"tri_key",100,"shape",0,0
"A16G6PPH1INQL8",1971,461738,1366,708,1280,"33F859I567XSSMA53ELN416R8V2BHO","22/10/2018@15:27:52","rvts_first","Mozilla/5.0 (Windows NT 10.0; Win64; x64) AppleWebKit/537.36 (KHTML, like Gecko) Chrome/70.0.3538.67 Safari/537.36",768,70,68,74,75,"top_right","top_left",816,"red","Switch","right",4,"Color","triangle",100,0,"red_key",1000,"color",0,1
"A16G6PPH1INQL8",1972,461738,1366,708,1280,"33F859I567XSSMA53ELN416R8V2BHO","22/10/2018@15:27:52","rvts_first","Mozilla/5.0 (Windows NT 10.0; Win64; x64) AppleWebKit/537.36 (KHTML, like Gecko) Chrome/70.0.3538.67 Safari/537.36",768,70,68,74,75,"top_right","top_left",2255,"blue","Repeat","right",5,"Color","circle",100,0,"blue_key",1000,"color",0,0
"A16G6PPH1INQL8",1973,461738,1366,708,1280,"33F859I567XSSMA53ELN416R8V2BHO","22/10/2018@15:27:52","rvts_first","Mozilla/5.0 (Windows NT 10.0; Win64; x64) AppleWebKit/537.36 (KHTML, like Gecko) Chrome/70.0.3538.67 Safari/537.36",768,70,68,74,75,"top_right","top_left",1489,"red","Switch","left",6,"Shape","circle",1000,0,"circle_key",100,"shape",0,1
"A16G6PPH1INQL8",1974,461738,1366,708,1280,"33F859I567XSSMA53ELN416R8V2BHO","22/10/2018@15:27:52","rvts_first","Mozilla/5.0 (Windows NT 10.0; Win64; x64) AppleWebKit/537.36 (KHTML, like Gecko) Chrome/70.0.3538.67 Safari/537.36",768,70,68,74,75,"top_right","top_left",1297,"blue","Repeat","left",7,"Shape","triangle",100,0,"tri_key",1000,"shape",0,0
"A16G6PPH1INQL8",1977,461738,1366,708,1280,"33F859I567XSSMA53ELN416R8V2BHO","22/10/2018@15:27:52","rvts_first","Mozilla/5.0 (Windows NT 10.0; Win64; x64) AppleWebKit/537.36 (KHTML, like Gecko) Chrome/70.0.3538.67 Safari/537.36",768,70,68,74,75,"top_right","top_left",529,"red","Switch","right",10,"Color","circle",100,0,"red_key",1000,"color",0,1
"A16G6PPH1INQL8",1978,461738,1366,708,1280,"33F859I567XSSMA53ELN416R8V2BHO","22/10/2018@15:27:52","rvts_first","Mozilla/5.0 (Windows NT 10.0; Win64; x64) AppleWebKit/537.36 (KHTML, like Gecko) Chrome/70.0.3538.67 Safari/537.36",768,70,68,74,75,"top_right","top_left",1444,"blue","Switch","left",11,"Shape","circle",100,0,"circle_key",1000,"shape",0,1
"A16G6PPH1INQL8",1979,461738,1366,708,1280,"33F859I567XSSMA53ELN416R8V2BHO","22/10/2018@15:27:52","rvts_first","Mozilla/5.0 (Windows NT 10.0; Win64; x64) AppleWebKit/537.36 (KHTML, like Gecko) Chrome/70.0.3538.67 Safari/537.36",768,70,68,74,75,"top_right","top_left",861,"blue","Switch","right",12,"Color","circle",1000,0,"blue_key",100,"color",0,1
"A16G6PPH1INQL8",1980,461738,1366,708,1280,"33F859I567XSSMA53ELN416R8V2BHO","22/10/2018@15:27:52","rvts_first","Mozilla/5.0 (Windows NT 10.0; Win64; x64) AppleWebKit/537.36 (KHTML, like Gecko) Chrome/70.0.3538.67 Safari/537.36",768,70,68,74,75,"top_right","top_left",609,"blue","Switch","left",13,"Shape","circle",100,0,"circle_key",1000,"shape",0,1
"A16G6PPH1INQL8",1981,461738,1366,708,1280,"33F859I567XSSMA53ELN416R8V2BHO","22/10/2018@15:27:52","rvts_first","Mozilla/5.0 (Windows NT 10.0; Win64; x64) AppleWebKit/537.36 (KHTML, like Gecko) Chrome/70.0.3538.67 Safari/537.36",768,70,68,74,75,"top_right","top_left",560,"blue","Repeat","left",14,"Shape","circle",100,0,"circle_key",1000,"shape",0,0
"A16G6PPH1INQL8",1982,461738,1366,708,1280,"33F859I567XSSMA53ELN416R8V2BHO","22/10/2018@15:27:52","rvts_first","Mozilla/5.0 (Windows NT 10.0; Win64; x64) AppleWebKit/537.36 (KHTML, like Gecko) Chrome/70.0.3538.67 Safari/537.36",768,70,68,74,75,"top_right","top_left",688,"red","Repeat","left",15,"Shape","circle",1000,0,"circle_key",100,"shape",0,0
"A16G6PPH1INQL8",1983,461738,1366,708,1280,"33F859I567XSSMA53ELN416R8V2BHO","22/10/2018@15:27:52","rvts_first","Mozilla/5.0 (Windows NT 10.0; Win64; x64) AppleWebKit/537.36 (KHTML, like Gecko) Chrome/70.0.3538.67 Safari/537.36",768,70,68,74,75,"top_right","top_left",402,"red","Repeat","left",16,"Shape","triangle",100,0,"tri_key",1000,"shape",0,0
"A16G6PPH1INQL8",1984,461738,1366,708,1280,"33F859I567XSSMA53ELN416R8V2BHO","22/10/2018@15:27:52","rvts_first","Mozilla/5.0 (Windows NT 10.0; Win64; x64) AppleWebKit/537.36 (KHTML, like Gecko) Chrome/70.0.3538.67 Safari/537.36",768,70,68,74,75,"top_right","top_left",736,"red","Switch","right",17,"Color","circle",100,0,"red_key",1000,"color",0,1
"A16G6PPH1INQL8",1987,461738,1366,708,1280,"33F859I567XSSMA53ELN416R8V2BHO","22/10/2018@15:27:52","rvts_first","Mozilla/5.0 (Windows NT 10.0; Win64; x64) AppleWebKit/537.36 (KHTML, like Gecko) Chrome/70.0.3538.67 Safari/537.36",768,70,68,74,75,"top_right","top_left",737,"red","Repeat","right",20,"Color","triangle",1000,0,"red_key",100,"color",0,0
"A16G6PPH1INQL8",1988,461738,1366,708,1280,"33F859I567XSSMA53ELN416R8V2BHO","22/10/2018@15:27:52","rvts_first","Mozilla/5.0 (Windows NT 10.0; Win64; x64) AppleWebKit/537.36 (KHTML, like Gecko) Chrome/70.0.3538.67 Safari/537.36",768,70,68,74,75,"top_right","top_left",562,"red","Repeat","right",21,"Color","circle",1000,0,"red_key",100,"color",0,0
"A16G6PPH1INQL8",1989,461738,1366,708,1280,"33F859I567XSSMA53ELN416R8V2BHO","22/10/2018@15:27:52","rvts_first","Mozilla/5.0 (Windows NT 10.0; Win64; x64) AppleWebKit/537.36 (KHTML, like Gecko) Chrome/70.0.3538.67 Safari/537.36",768,70,68,74,75,"top_right","top_left",465,"red","Repeat","right",22,"Color","triangle",100,0,"red_key",1000,"color",0,0
"A16G6PPH1INQL8",1990,461738,1366,708,1280,"33F859I567XSSMA53ELN416R8V2BHO","22/10/2018@15:27:52","rvts_first","Mozilla/5.0 (Windows NT 10.0; Win64; x64) AppleWebKit/537.36 (KHTML, like Gecko) Chrome/70.0.3538.67 Safari/537.36",768,70,68,74,75,"top_right","top_left",530,"red","Repeat","right",23,"Color","triangle",1000,0,"red_key",100,"color",0,0
"A16G6PPH1INQL8",1991,461738,1366,708,1280,"33F859I567XSSMA53ELN416R8V2BHO","22/10/2018@15:27:52","rvts_first","Mozilla/5.0 (Windows NT 10.0; Win64; x64) AppleWebKit/537.36 (KHTML, like Gecko) Chrome/70.0.3538.67 Safari/537.36",768,70,68,74,75,"top_right","top_left",1266,"blue","Switch","left",24,"Shape","circle",1000,0,"circle_key",100,"shape",0,1
"A16G6PPH1INQL8",1992,461738,1366,708,1280,"33F859I567XSSMA53ELN416R8V2BHO","22/10/2018@15:27:52","rvts_first","Mozilla/5.0 (Windows NT 10.0; Win64; x64) AppleWebKit/537.36 (KHTML, like Gecko) Chrome/70.0.3538.67 Safari/537.36",768,70,68,74,75,"top_right","top_left",2850,"blue","Switch","right",25,"Color","triangle",100,0,"blue_key",1000,"color",0,1
"A16G6PPH1INQL8",1993,461738,1366,708,1280,"33F859I567XSSMA53ELN416R8V2BHO","22/10/2018@15:27:52","rvts_first","Mozilla/5.0 (Windows NT 10.0; Win64; x64) AppleWebKit/537.36 (KHTML, like Gecko) Chrome/70.0.3538.67 Safari/537.36",768,70,68,74,75,"top_right","top_left",481,"red","Repeat","right",26,"Color","circle",100,0,"red_key",1000,"color",0,0
"A16G6PPH1INQL8",1996,461738,1366,708,1280,"33F859I567XSSMA53ELN416R8V2BHO","22/10/2018@15:27:52","rvts_first","Mozilla/5.0 (Windows NT 10.0; Win64; x64) AppleWebKit/537.36 (KHTML, like Gecko) Chrome/70.0.3538.67 Safari/537.36",768,70,68,74,75,"top_right","top_left",1451,"red","Switch","right",29,"Color","circle",1000,0,"red_key",100,"color",0,1
"A16G6PPH1INQL8",1997,461738,1366,708,1280,"33F859I567XSSMA53ELN416R8V2BHO","22/10/2018@15:27:52","rvts_first","Mozilla/5.0 (Windows NT 10.0; Win64; x64) AppleWebKit/537.36 (KHTML, like Gecko) Chrome/70.0.3538.67 Safari/537.36",768,70,68,74,75,"top_right","top_left",1377,"red","Repeat","right",30,"Color","circle",1000,0,"red_key",100,"color",0,0
"A16G6PPH1INQL8",1998,461738,1366,708,1280,"33F859I567XSSMA53ELN416R8V2BHO","22/10/2018@15:27:52","rvts_first","Mozilla/5.0 (Windows NT 10.0; Win64; x64) AppleWebKit/537.36 (KHTML, like Gecko) Chrome/70.0.3538.67 Safari/537.36",768,70,68,74,75,"top_right","top_left",1650,"blue","Switch","left",31,"Shape","circle",100,0,"circle_key",1000,"shape",0,1
"A16G6PPH1INQL8",2001,461738,1366,708,1280,"33F859I567XSSMA53ELN416R8V2BHO","22/10/2018@15:27:52","rvts_first","Mozilla/5.0 (Windows NT 10.0; Win64; x64) AppleWebKit/537.36 (KHTML, like Gecko) Chrome/70.0.3538.67 Safari/537.36",768,70,68,74,75,"top_right","top_left",3009,"red","Switch","left",34,"Shape","triangle",100,0,"tri_key",1000,"shape",0,1
