"subject","finishTime","screen_width","window_height","window_width","curId","curTime","counterBalance_order","userAgent","screen_height","circle_key","tri_key","blue_key","red_key","color","shape","rt","stim_color","transition","response_location","trial","cue","stim_shape","rci","error","response_key","cti","task_attempt","error_trim","transcode"
"A014297063OPPUEBTOLM",421341,1600,708,1533,"3137ONMDKHPCZTRETZ5VK90B26FEG3","05/11/2018@16:15:03","rvts_first","Mozilla/5.0 (Windows NT 10.0; WOW64; rv:63.0) Gecko/20100101 Firefox/63.0",900,75,74,70,68,"top_left","top_right",2143,"red","Repeat","left",2,"Color","triangle",100,0,"red_key",1000,"color",0,0
"A014297063OPPUEBTOLM",421341,1600,708,1533,"3137ONMDKHPCZTRETZ5VK90B26FEG3","05/11/2018@16:15:03","rvts_first","Mozilla/5.0 (Windows NT 10.0; WOW64; rv:63.0) Gecko/20100101 Firefox/63.0",900,75,74,70,68,"top_left","top_right",698,"red","Repeat","left",3,"Color","circle",100,0,"red_key",1000,"color",0,0
"A014297063OPPUEBTOLM",421341,1600,708,1533,"3137ONMDKHPCZTRETZ5VK90B26FEG3","05/11/2018@16:15:03","rvts_first","Mozilla/5.0 (Windows NT 10.0; WOW64; rv:63.0) Gecko/20100101 Firefox/63.0",900,75,74,70,68,"top_left","top_right",653,"red","Repeat","left",4,"Color","circle",1000,0,"red_key",100,"color",0,0
"A014297063OPPUEBTOLM",421341,1600,708,1533,"3137ONMDKHPCZTRETZ5VK90B26FEG3","05/11/2018@16:15:03","rvts_first","Mozilla/5.0 (Windows NT 10.0; WOW64; rv:63.0) Gecko/20100101 Firefox/63.0",900,75,74,70,68,"top_left","top_right",1652,"red","Switch","right",5,"Shape","circle",1000,0,"circle_key",100,"shape",0,1
"A014297063OPPUEBTOLM",421341,1600,708,1533,"3137ONMDKHPCZTRETZ5VK90B26FEG3","05/11/2018@16:15:03","rvts_first","Mozilla/5.0 (Windows NT 10.0; WOW64; rv:63.0) Gecko/20100101 Firefox/63.0",900,75,74,70,68,"top_left","top_right",1368,"red","Switch","left",6,"Color","circle",1000,0,"red_key",100,"color",0,1
"A014297063OPPUEBTOLM",421341,1600,708,1533,"3137ONMDKHPCZTRETZ5VK90B26FEG3","05/11/2018@16:15:03","rvts_first","Mozilla/5.0 (Windows NT 10.0; WOW64; rv:63.0) Gecko/20100101 Firefox/63.0",900,75,74,70,68,"top_left","top_right",2766,"blue","Switch","right",7,"Shape","circle",1000,0,"circle_key",100,"shape",0,1
"A014297063OPPUEBTOLM",421341,1600,708,1533,"3137ONMDKHPCZTRETZ5VK90B26FEG3","05/11/2018@16:15:03","rvts_first","Mozilla/5.0 (Windows NT 10.0; WOW64; rv:63.0) Gecko/20100101 Firefox/63.0",900,75,74,70,68,"top_left","top_right",1212,"red","Repeat","right",8,"Shape","triangle",1000,0,"tri_key",100,"shape",0,0
"A014297063OPPUEBTOLM",421341,1600,708,1533,"3137ONMDKHPCZTRETZ5VK90B26FEG3","05/11/2018@16:15:03","rvts_first","Mozilla/5.0 (Windows NT 10.0; WOW64; rv:63.0) Gecko/20100101 Firefox/63.0",900,75,74,70,68,"top_left","top_right",1324,"blue","Switch","left",9,"Color","triangle",100,0,"blue_key",1000,"color",0,1
"A014297063OPPUEBTOLM",421341,1600,708,1533,"3137ONMDKHPCZTRETZ5VK90B26FEG3","05/11/2018@16:15:03","rvts_first","Mozilla/5.0 (Windows NT 10.0; WOW64; rv:63.0) Gecko/20100101 Firefox/63.0",900,75,74,70,68,"top_left","top_right",1979,"red","Repeat","left",10,"Color","circle",100,0,"red_key",1000,"color",0,0
"A014297063OPPUEBTOLM",421341,1600,708,1533,"3137ONMDKHPCZTRETZ5VK90B26FEG3","05/11/2018@16:15:03","rvts_first","Mozilla/5.0 (Windows NT 10.0; WOW64; rv:63.0) Gecko/20100101 Firefox/63.0",900,75,74,70,68,"top_left","top_right",1164,"red","Repeat","left",11,"Color","circle",1000,0,"red_key",100,"color",0,0
"A014297063OPPUEBTOLM",421341,1600,708,1533,"3137ONMDKHPCZTRETZ5VK90B26FEG3","05/11/2018@16:15:03","rvts_first","Mozilla/5.0 (Windows NT 10.0; WOW64; rv:63.0) Gecko/20100101 Firefox/63.0",900,75,74,70,68,"top_left","top_right",1795,"red","Switch","right",12,"Shape","circle",1000,0,"circle_key",100,"shape",0,1
"A014297063OPPUEBTOLM",421341,1600,708,1533,"3137ONMDKHPCZTRETZ5VK90B26FEG3","05/11/2018@16:15:03","rvts_first","Mozilla/5.0 (Windows NT 10.0; WOW64; rv:63.0) Gecko/20100101 Firefox/63.0",900,75,74,70,68,"top_left","top_right",1339,"red","Repeat","right",13,"Shape","triangle",100,0,"tri_key",1000,"shape",0,0
"A014297063OPPUEBTOLM",421341,1600,708,1533,"3137ONMDKHPCZTRETZ5VK90B26FEG3","05/11/2018@16:15:03","rvts_first","Mozilla/5.0 (Windows NT 10.0; WOW64; rv:63.0) Gecko/20100101 Firefox/63.0",900,75,74,70,68,"top_left","top_right",1146,"red","Repeat","right",14,"Shape","triangle",100,0,"tri_key",1000,"shape",0,0
"A014297063OPPUEBTOLM",421341,1600,708,1533,"3137ONMDKHPCZTRETZ5VK90B26FEG3","05/11/2018@16:15:03","rvts_first","Mozilla/5.0 (Windows NT 10.0; WOW64; rv:63.0) Gecko/20100101 Firefox/63.0",900,75,74,70,68,"top_left","top_right",1062,"red","Repeat","right",15,"Shape","circle",100,0,"circle_key",1000,"shape",0,0
"A014297063OPPUEBTOLM",421341,1600,708,1533,"3137ONMDKHPCZTRETZ5VK90B26FEG3","05/11/2018@16:15:03","rvts_first","Mozilla/5.0 (Windows NT 10.0; WOW64; rv:63.0) Gecko/20100101 Firefox/63.0",900,75,74,70,68,"top_left","top_right",621,"blue","Repeat","right",16,"Shape","triangle",100,0,"tri_key",1000,"shape",0,0
"A014297063OPPUEBTOLM",421341,1600,708,1533,"3137ONMDKHPCZTRETZ5VK90B26FEG3","05/11/2018@16:15:03","rvts_first","Mozilla/5.0 (Windows NT 10.0; WOW64; rv:63.0) Gecko/20100101 Firefox/63.0",900,75,74,70,68,"top_left","top_right",1334,"blue","Switch","left",17,"Color","triangle",1000,0,"blue_key",100,"color",0,1
"A014297063OPPUEBTOLM",421341,1600,708,1533,"3137ONMDKHPCZTRETZ5VK90B26FEG3","05/11/2018@16:15:03","rvts_first","Mozilla/5.0 (Windows NT 10.0; WOW64; rv:63.0) Gecko/20100101 Firefox/63.0",900,75,74,70,68,"top_left","top_right",1151,"red","Switch","right",18,"Shape","triangle",1000,0,"tri_key",100,"shape",0,1
"A014297063OPPUEBTOLM",421341,1600,708,1533,"3137ONMDKHPCZTRETZ5VK90B26FEG3","05/11/2018@16:15:03","rvts_first","Mozilla/5.0 (Windows NT 10.0; WOW64; rv:63.0) Gecko/20100101 Firefox/63.0",900,75,74,70,68,"top_left","top_right",886,"red","Repeat","right",19,"Shape","triangle",1000,0,"tri_key",100,"shape",0,0
"A014297063OPPUEBTOLM",421341,1600,708,1533,"3137ONMDKHPCZTRETZ5VK90B26FEG3","05/11/2018@16:15:03","rvts_first","Mozilla/5.0 (Windows NT 10.0; WOW64; rv:63.0) Gecko/20100101 Firefox/63.0",900,75,74,70,68,"top_left","top_right",1857,"red","Repeat","right",20,"Shape","circle",1000,0,"circle_key",100,"shape",0,0
"A014297063OPPUEBTOLM",421341,1600,708,1533,"3137ONMDKHPCZTRETZ5VK90B26FEG3","05/11/2018@16:15:03","rvts_first","Mozilla/5.0 (Windows NT 10.0; WOW64; rv:63.0) Gecko/20100101 Firefox/63.0",900,75,74,70,68,"top_left","top_right",1850,"red","Switch","left",21,"Color","triangle",1000,0,"red_key",100,"color",0,1
"A014297063OPPUEBTOLM",421341,1600,708,1533,"3137ONMDKHPCZTRETZ5VK90B26FEG3","05/11/2018@16:15:03","rvts_first","Mozilla/5.0 (Windows NT 10.0; WOW64; rv:63.0) Gecko/20100101 Firefox/63.0",900,75,74,70,68,"top_left","top_right",981,"blue","Repeat","left",22,"Color","circle",1000,0,"blue_key",100,"color",0,0
"A014297063OPPUEBTOLM",421341,1600,708,1533,"3137ONMDKHPCZTRETZ5VK90B26FEG3","05/11/2018@16:15:03","rvts_first","Mozilla/5.0 (Windows NT 10.0; WOW64; rv:63.0) Gecko/20100101 Firefox/63.0",900,75,74,70,68,"top_left","top_right",1031,"blue","Repeat","left",23,"Color","triangle",100,0,"blue_key",1000,"color",0,0
"A014297063OPPUEBTOLM",421341,1600,708,1533,"3137ONMDKHPCZTRETZ5VK90B26FEG3","05/11/2018@16:15:03","rvts_first","Mozilla/5.0 (Windows NT 10.0; WOW64; rv:63.0) Gecko/20100101 Firefox/63.0",900,75,74,70,68,"top_left","top_right",997,"blue","Repeat","left",24,"Color","triangle",100,0,"blue_key",1000,"color",0,0
"A014297063OPPUEBTOLM",421341,1600,708,1533,"3137ONMDKHPCZTRETZ5VK90B26FEG3","05/11/2018@16:15:03","rvts_first","Mozilla/5.0 (Windows NT 10.0; WOW64; rv:63.0) Gecko/20100101 Firefox/63.0",900,75,74,70,68,"top_left","top_right",1199,"red","Repeat","left",25,"Color","circle",1000,0,"red_key",100,"color",0,0
"A014297063OPPUEBTOLM",421341,1600,708,1533,"3137ONMDKHPCZTRETZ5VK90B26FEG3","05/11/2018@16:15:03","rvts_first","Mozilla/5.0 (Windows NT 10.0; WOW64; rv:63.0) Gecko/20100101 Firefox/63.0",900,75,74,70,68,"top_left","top_right",1116,"blue","Switch","right",26,"Shape","circle",100,0,"circle_key",1000,"shape",0,1
"A014297063OPPUEBTOLM",421341,1600,708,1533,"3137ONMDKHPCZTRETZ5VK90B26FEG3","05/11/2018@16:15:03","rvts_first","Mozilla/5.0 (Windows NT 10.0; WOW64; rv:63.0) Gecko/20100101 Firefox/63.0",900,75,74,70,68,"top_left","top_right",1300,"red","Switch","left",27,"Color","circle",100,0,"red_key",1000,"color",0,1
"A014297063OPPUEBTOLM",421341,1600,708,1533,"3137ONMDKHPCZTRETZ5VK90B26FEG3","05/11/2018@16:15:03","rvts_first","Mozilla/5.0 (Windows NT 10.0; WOW64; rv:63.0) Gecko/20100101 Firefox/63.0",900,75,74,70,68,"top_left","top_right",1577,"blue","Repeat","left",28,"Color","circle",1000,0,"blue_key",100,"color",0,0
"A014297063OPPUEBTOLM",421341,1600,708,1533,"3137ONMDKHPCZTRETZ5VK90B26FEG3","05/11/2018@16:15:03","rvts_first","Mozilla/5.0 (Windows NT 10.0; WOW64; rv:63.0) Gecko/20100101 Firefox/63.0",900,75,74,70,68,"top_left","top_right",2363,"red","Switch","right",29,"Shape","circle",1000,0,"circle_key",100,"shape",0,1
"A014297063OPPUEBTOLM",421341,1600,708,1533,"3137ONMDKHPCZTRETZ5VK90B26FEG3","05/11/2018@16:15:03","rvts_first","Mozilla/5.0 (Windows NT 10.0; WOW64; rv:63.0) Gecko/20100101 Firefox/63.0",900,75,74,70,68,"top_left","top_right",1503,"red","Repeat","right",30,"Shape","circle",1000,0,"circle_key",100,"shape",0,0
"A014297063OPPUEBTOLM",421341,1600,708,1533,"3137ONMDKHPCZTRETZ5VK90B26FEG3","05/11/2018@16:15:03","rvts_first","Mozilla/5.0 (Windows NT 10.0; WOW64; rv:63.0) Gecko/20100101 Firefox/63.0",900,75,74,70,68,"top_left","top_right",1531,"blue","Switch","left",31,"Color","triangle",100,0,"blue_key",1000,"color",0,1
"A014297063OPPUEBTOLM",421341,1600,708,1533,"3137ONMDKHPCZTRETZ5VK90B26FEG3","05/11/2018@16:15:03","rvts_first","Mozilla/5.0 (Windows NT 10.0; WOW64; rv:63.0) Gecko/20100101 Firefox/63.0",900,75,74,70,68,"top_left","top_right",1422,"blue","Switch","right",32,"Shape","circle",100,0,"circle_key",1000,"shape",0,1
"A014297063OPPUEBTOLM",421341,1600,708,1533,"3137ONMDKHPCZTRETZ5VK90B26FEG3","05/11/2018@16:15:03","rvts_first","Mozilla/5.0 (Windows NT 10.0; WOW64; rv:63.0) Gecko/20100101 Firefox/63.0",900,75,74,70,68,"top_left","top_right",931,"red","Repeat","right",33,"Shape","circle",100,0,"circle_key",1000,"shape",0,0
"A014297063OPPUEBTOLM",421341,1600,708,1533,"3137ONMDKHPCZTRETZ5VK90B26FEG3","05/11/2018@16:15:03","rvts_first","Mozilla/5.0 (Windows NT 10.0; WOW64; rv:63.0) Gecko/20100101 Firefox/63.0",900,75,74,70,68,"top_left","top_right",1086,"red","Repeat","right",34,"Shape","triangle",100,0,"tri_key",1000,"shape",0,0
"A014297063OPPUEBTOLM",421341,1600,708,1533,"3137ONMDKHPCZTRETZ5VK90B26FEG3","05/11/2018@16:15:03","rvts_first","Mozilla/5.0 (Windows NT 10.0; WOW64; rv:63.0) Gecko/20100101 Firefox/63.0",900,75,74,70,68,"top_left","top_right",1154,"blue","Repeat","right",35,"Shape","triangle",100,0,"tri_key",1000,"shape",0,0
"A014297063OPPUEBTOLM",421341,1600,708,1533,"3137ONMDKHPCZTRETZ5VK90B26FEG3","05/11/2018@16:15:03","rvts_first","Mozilla/5.0 (Windows NT 10.0; WOW64; rv:63.0) Gecko/20100101 Firefox/63.0",900,75,74,70,68,"top_left","top_right",1010,"blue","Repeat","right",36,"Shape","triangle",100,0,"tri_key",1000,"shape",0,0
"A014297063OPPUEBTOLM",421341,1600,708,1533,"3137ONMDKHPCZTRETZ5VK90B26FEG3","05/11/2018@16:15:03","rvts_first","Mozilla/5.0 (Windows NT 10.0; WOW64; rv:63.0) Gecko/20100101 Firefox/63.0",900,75,74,70,68,"top_left","top_right",1055,"blue","Repeat","right",37,"Shape","circle",1000,0,"circle_key",100,"shape",0,0
"A014297063OPPUEBTOLM",421341,1600,708,1533,"3137ONMDKHPCZTRETZ5VK90B26FEG3","05/11/2018@16:15:03","rvts_first","Mozilla/5.0 (Windows NT 10.0; WOW64; rv:63.0) Gecko/20100101 Firefox/63.0",900,75,74,70,68,"top_left","top_right",1442,"red","Repeat","right",38,"Shape","triangle",1000,0,"tri_key",100,"shape",0,0
"A014297063OPPUEBTOLM",421341,1600,708,1533,"3137ONMDKHPCZTRETZ5VK90B26FEG3","05/11/2018@16:15:03","rvts_first","Mozilla/5.0 (Windows NT 10.0; WOW64; rv:63.0) Gecko/20100101 Firefox/63.0",900,75,74,70,68,"top_left","top_right",1181,"red","Switch","left",39,"Color","triangle",100,0,"red_key",1000,"color",0,1
"A014297063OPPUEBTOLM",421341,1600,708,1533,"3137ONMDKHPCZTRETZ5VK90B26FEG3","05/11/2018@16:15:03","rvts_first","Mozilla/5.0 (Windows NT 10.0; WOW64; rv:63.0) Gecko/20100101 Firefox/63.0",900,75,74,70,68,"top_left","top_right",1314,"blue","Repeat","left",40,"Color","triangle",1000,0,"blue_key",100,"color",0,0
"A014297063OPPUEBTOLM",421341,1600,708,1533,"3137ONMDKHPCZTRETZ5VK90B26FEG3","05/11/2018@16:15:03","rvts_first","Mozilla/5.0 (Windows NT 10.0; WOW64; rv:63.0) Gecko/20100101 Firefox/63.0",900,75,74,70,68,"top_left","top_right",1270,"red","Repeat","left",41,"Color","triangle",1000,0,"red_key",100,"color",0,0
"A014297063OPPUEBTOLM",421341,1600,708,1533,"3137ONMDKHPCZTRETZ5VK90B26FEG3","05/11/2018@16:15:03","rvts_first","Mozilla/5.0 (Windows NT 10.0; WOW64; rv:63.0) Gecko/20100101 Firefox/63.0",900,75,74,70,68,"top_left","top_right",1014,"blue","Repeat","left",42,"Color","circle",100,0,"blue_key",1000,"color",0,0
"A014297063OPPUEBTOLM",421341,1600,708,1533,"3137ONMDKHPCZTRETZ5VK90B26FEG3","05/11/2018@16:15:03","rvts_first","Mozilla/5.0 (Windows NT 10.0; WOW64; rv:63.0) Gecko/20100101 Firefox/63.0",900,75,74,70,68,"top_left","top_right",1152,"red","Switch","right",43,"Shape","triangle",100,0,"tri_key",1000,"shape",0,1
"A014297063OPPUEBTOLM",421341,1600,708,1533,"3137ONMDKHPCZTRETZ5VK90B26FEG3","05/11/2018@16:15:03","rvts_first","Mozilla/5.0 (Windows NT 10.0; WOW64; rv:63.0) Gecko/20100101 Firefox/63.0",900,75,74,70,68,"top_left","top_right",897,"red","Switch","left",44,"Color","triangle",100,0,"red_key",1000,"color",0,1
"A014297063OPPUEBTOLM",421341,1600,708,1533,"3137ONMDKHPCZTRETZ5VK90B26FEG3","05/11/2018@16:15:03","rvts_first","Mozilla/5.0 (Windows NT 10.0; WOW64; rv:63.0) Gecko/20100101 Firefox/63.0",900,75,74,70,68,"top_left","top_right",1366,"red","Switch","right",45,"Shape","triangle",1000,0,"tri_key",100,"shape",0,1
"A014297063OPPUEBTOLM",421341,1600,708,1533,"3137ONMDKHPCZTRETZ5VK90B26FEG3","05/11/2018@16:15:03","rvts_first","Mozilla/5.0 (Windows NT 10.0; WOW64; rv:63.0) Gecko/20100101 Firefox/63.0",900,75,74,70,68,"top_left","top_right",3033,"blue","Switch","left",46,"Color","triangle",100,0,"blue_key",1000,"color",0,1
"A014297063OPPUEBTOLM",421341,1600,708,1533,"3137ONMDKHPCZTRETZ5VK90B26FEG3","05/11/2018@16:15:03","rvts_first","Mozilla/5.0 (Windows NT 10.0; WOW64; rv:63.0) Gecko/20100101 Firefox/63.0",900,75,74,70,68,"top_left","top_right",1121,"blue","Repeat","left",47,"Color","triangle",1000,0,"blue_key",100,"color",0,0
"A014297063OPPUEBTOLM",421341,1600,708,1533,"3137ONMDKHPCZTRETZ5VK90B26FEG3","05/11/2018@16:15:03","rvts_first","Mozilla/5.0 (Windows NT 10.0; WOW64; rv:63.0) Gecko/20100101 Firefox/63.0",900,75,74,70,68,"top_left","top_right",1225,"blue","Repeat","left",48,"Color","circle",1000,0,"blue_key",100,"color",0,0
"A014297063OPPUEBTOLM",421341,1600,708,1533,"3137ONMDKHPCZTRETZ5VK90B26FEG3","05/11/2018@16:15:03","rvts_first","Mozilla/5.0 (Windows NT 10.0; WOW64; rv:63.0) Gecko/20100101 Firefox/63.0",900,75,74,70,68,"top_left","top_right",1134,"red","Repeat","left",49,"Color","circle",100,0,"red_key",1000,"color",0,0
"A014297063OPPUEBTOLM",421341,1600,708,1533,"3137ONMDKHPCZTRETZ5VK90B26FEG3","05/11/2018@16:15:03","rvts_first","Mozilla/5.0 (Windows NT 10.0; WOW64; rv:63.0) Gecko/20100101 Firefox/63.0",900,75,74,70,68,"top_left","top_right",1255,"blue","Repeat","left",50,"Color","circle",1000,0,"blue_key",100,"color",0,0
"A014297063OPPUEBTOLM",421341,1600,708,1533,"3137ONMDKHPCZTRETZ5VK90B26FEG3","05/11/2018@16:15:03","rvts_first","Mozilla/5.0 (Windows NT 10.0; WOW64; rv:63.0) Gecko/20100101 Firefox/63.0",900,75,74,70,68,"top_left","top_right",2101,"red","Repeat","left",51,"Color","triangle",100,0,"red_key",1000,"color",0,0
"A014297063OPPUEBTOLM",421341,1600,708,1533,"3137ONMDKHPCZTRETZ5VK90B26FEG3","05/11/2018@16:15:03","rvts_first","Mozilla/5.0 (Windows NT 10.0; WOW64; rv:63.0) Gecko/20100101 Firefox/63.0",900,75,74,70,68,"top_left","top_right",1767,"blue","Repeat","left",52,"Color","triangle",100,0,"blue_key",1000,"color",0,0
"A014297063OPPUEBTOLM",421341,1600,708,1533,"3137ONMDKHPCZTRETZ5VK90B26FEG3","05/11/2018@16:15:03","rvts_first","Mozilla/5.0 (Windows NT 10.0; WOW64; rv:63.0) Gecko/20100101 Firefox/63.0",900,75,74,70,68,"top_left","top_right",1945,"red","Switch","right",53,"Shape","circle",1000,0,"circle_key",100,"shape",0,1
"A014297063OPPUEBTOLM",421341,1600,708,1533,"3137ONMDKHPCZTRETZ5VK90B26FEG3","05/11/2018@16:15:03","rvts_first","Mozilla/5.0 (Windows NT 10.0; WOW64; rv:63.0) Gecko/20100101 Firefox/63.0",900,75,74,70,68,"top_left","top_right",2118,"blue","Switch","left",54,"Color","circle",1000,0,"blue_key",100,"color",0,1
"A014297063OPPUEBTOLM",421341,1600,708,1533,"3137ONMDKHPCZTRETZ5VK90B26FEG3","05/11/2018@16:15:03","rvts_first","Mozilla/5.0 (Windows NT 10.0; WOW64; rv:63.0) Gecko/20100101 Firefox/63.0",900,75,74,70,68,"top_left","top_right",1830,"blue","Switch","right",55,"Shape","triangle",1000,0,"tri_key",100,"shape",0,1
"A014297063OPPUEBTOLM",421341,1600,708,1533,"3137ONMDKHPCZTRETZ5VK90B26FEG3","05/11/2018@16:15:03","rvts_first","Mozilla/5.0 (Windows NT 10.0; WOW64; rv:63.0) Gecko/20100101 Firefox/63.0",900,75,74,70,68,"top_left","top_right",1724,"blue","Repeat","right",56,"Shape","triangle",100,0,"tri_key",1000,"shape",0,0
"A014297063OPPUEBTOLM",421341,1600,708,1533,"3137ONMDKHPCZTRETZ5VK90B26FEG3","05/11/2018@16:15:03","rvts_first","Mozilla/5.0 (Windows NT 10.0; WOW64; rv:63.0) Gecko/20100101 Firefox/63.0",900,75,74,70,68,"top_left","top_right",795,"blue","Repeat","right",57,"Shape","triangle",100,0,"tri_key",1000,"shape",0,0
"A014297063OPPUEBTOLM",421341,1600,708,1533,"3137ONMDKHPCZTRETZ5VK90B26FEG3","05/11/2018@16:15:03","rvts_first","Mozilla/5.0 (Windows NT 10.0; WOW64; rv:63.0) Gecko/20100101 Firefox/63.0",900,75,74,70,68,"top_left","top_right",1041,"red","Switch","left",58,"Color","triangle",100,0,"red_key",1000,"color",0,1
"A014297063OPPUEBTOLM",421341,1600,708,1533,"3137ONMDKHPCZTRETZ5VK90B26FEG3","05/11/2018@16:15:03","rvts_first","Mozilla/5.0 (Windows NT 10.0; WOW64; rv:63.0) Gecko/20100101 Firefox/63.0",900,75,74,70,68,"top_left","top_right",1226,"blue","Repeat","left",59,"Color","circle",1000,0,"blue_key",100,"color",0,0
"A014297063OPPUEBTOLM",421341,1600,708,1533,"3137ONMDKHPCZTRETZ5VK90B26FEG3","05/11/2018@16:15:03","rvts_first","Mozilla/5.0 (Windows NT 10.0; WOW64; rv:63.0) Gecko/20100101 Firefox/63.0",900,75,74,70,68,"top_left","top_right",1568,"red","Repeat","left",60,"Color","triangle",100,0,"red_key",1000,"color",0,0
"A014297063OPPUEBTOLM",421341,1600,708,1533,"3137ONMDKHPCZTRETZ5VK90B26FEG3","05/11/2018@16:15:03","rvts_first","Mozilla/5.0 (Windows NT 10.0; WOW64; rv:63.0) Gecko/20100101 Firefox/63.0",900,75,74,70,68,"top_left","top_right",1392,"red","Repeat","left",61,"Color","triangle",1000,0,"red_key",100,"color",0,0
"A014297063OPPUEBTOLM",421341,1600,708,1533,"3137ONMDKHPCZTRETZ5VK90B26FEG3","05/11/2018@16:15:03","rvts_first","Mozilla/5.0 (Windows NT 10.0; WOW64; rv:63.0) Gecko/20100101 Firefox/63.0",900,75,74,70,68,"top_left","top_right",1562,"red","Repeat","left",62,"Color","circle",1000,0,"red_key",100,"color",0,0
"A014297063OPPUEBTOLM",421341,1600,708,1533,"3137ONMDKHPCZTRETZ5VK90B26FEG3","05/11/2018@16:15:03","rvts_first","Mozilla/5.0 (Windows NT 10.0; WOW64; rv:63.0) Gecko/20100101 Firefox/63.0",900,75,74,70,68,"top_left","top_right",1137,"blue","Switch","right",63,"Shape","triangle",100,0,"tri_key",1000,"shape",0,1
"A014297063OPPUEBTOLM",421341,1600,708,1533,"3137ONMDKHPCZTRETZ5VK90B26FEG3","05/11/2018@16:15:03","rvts_first","Mozilla/5.0 (Windows NT 10.0; WOW64; rv:63.0) Gecko/20100101 Firefox/63.0",900,75,74,70,68,"top_left","top_right",1327,"red","Repeat","right",64,"Shape","circle",1000,0,"circle_key",100,"shape",0,0
"A014297063OPPUEBTOLM",421341,1600,708,1533,"3137ONMDKHPCZTRETZ5VK90B26FEG3","05/11/2018@16:15:03","rvts_first","Mozilla/5.0 (Windows NT 10.0; WOW64; rv:63.0) Gecko/20100101 Firefox/63.0",900,75,74,70,68,"top_left","top_right",1474,"red","Repeat","right",65,"Shape","triangle",1000,0,"tri_key",100,"shape",0,0
"A014297063OPPUEBTOLM",421341,1600,708,1533,"3137ONMDKHPCZTRETZ5VK90B26FEG3","05/11/2018@16:15:03","rvts_first","Mozilla/5.0 (Windows NT 10.0; WOW64; rv:63.0) Gecko/20100101 Firefox/63.0",900,75,74,70,68,"top_left","top_right",1351,"red","Repeat","right",68,"Shape","triangle",100,0,"tri_key",1000,"shape",0,0
"A014297063OPPUEBTOLM",421341,1600,708,1533,"3137ONMDKHPCZTRETZ5VK90B26FEG3","05/11/2018@16:15:03","rvts_first","Mozilla/5.0 (Windows NT 10.0; WOW64; rv:63.0) Gecko/20100101 Firefox/63.0",900,75,74,70,68,"top_left","top_right",1081,"red","Repeat","right",69,"Shape","circle",100,0,"circle_key",1000,"shape",0,0
"A014297063OPPUEBTOLM",421341,1600,708,1533,"3137ONMDKHPCZTRETZ5VK90B26FEG3","05/11/2018@16:15:03","rvts_first","Mozilla/5.0 (Windows NT 10.0; WOW64; rv:63.0) Gecko/20100101 Firefox/63.0",900,75,74,70,68,"top_left","top_right",2072,"blue","Repeat","right",70,"Shape","triangle",100,0,"tri_key",1000,"shape",0,0
"A014297063OPPUEBTOLM",421341,1600,708,1533,"3137ONMDKHPCZTRETZ5VK90B26FEG3","05/11/2018@16:15:03","rvts_first","Mozilla/5.0 (Windows NT 10.0; WOW64; rv:63.0) Gecko/20100101 Firefox/63.0",900,75,74,70,68,"top_left","top_right",1023,"red","Repeat","right",71,"Shape","triangle",100,0,"tri_key",1000,"shape",0,0
"A014297063OPPUEBTOLM",421341,1600,708,1533,"3137ONMDKHPCZTRETZ5VK90B26FEG3","05/11/2018@16:15:03","rvts_first","Mozilla/5.0 (Windows NT 10.0; WOW64; rv:63.0) Gecko/20100101 Firefox/63.0",900,75,74,70,68,"top_left","top_right",1411,"red","Switch","left",72,"Color","circle",100,0,"red_key",1000,"color",0,1
"A014297063OPPUEBTOLM",421341,1600,708,1533,"3137ONMDKHPCZTRETZ5VK90B26FEG3","05/11/2018@16:15:03","rvts_first","Mozilla/5.0 (Windows NT 10.0; WOW64; rv:63.0) Gecko/20100101 Firefox/63.0",900,75,74,70,68,"top_left","top_right",1524,"red","Switch","right",73,"Shape","circle",1000,0,"circle_key",100,"shape",0,1
"A014297063OPPUEBTOLM",421341,1600,708,1533,"3137ONMDKHPCZTRETZ5VK90B26FEG3","05/11/2018@16:15:03","rvts_first","Mozilla/5.0 (Windows NT 10.0; WOW64; rv:63.0) Gecko/20100101 Firefox/63.0",900,75,74,70,68,"top_left","top_right",1183,"blue","Repeat","right",74,"Shape","triangle",100,0,"tri_key",1000,"shape",0,0
"A014297063OPPUEBTOLM",421341,1600,708,1533,"3137ONMDKHPCZTRETZ5VK90B26FEG3","05/11/2018@16:15:03","rvts_first","Mozilla/5.0 (Windows NT 10.0; WOW64; rv:63.0) Gecko/20100101 Firefox/63.0",900,75,74,70,68,"top_left","top_right",1078,"red","Switch","left",75,"Color","circle",100,0,"red_key",1000,"color",0,1
"A014297063OPPUEBTOLM",421341,1600,708,1533,"3137ONMDKHPCZTRETZ5VK90B26FEG3","05/11/2018@16:15:03","rvts_first","Mozilla/5.0 (Windows NT 10.0; WOW64; rv:63.0) Gecko/20100101 Firefox/63.0",900,75,74,70,68,"top_left","top_right",1413,"red","Switch","right",76,"Shape","triangle",100,0,"tri_key",1000,"shape",0,1
"A014297063OPPUEBTOLM",421341,1600,708,1533,"3137ONMDKHPCZTRETZ5VK90B26FEG3","05/11/2018@16:15:03","rvts_first","Mozilla/5.0 (Windows NT 10.0; WOW64; rv:63.0) Gecko/20100101 Firefox/63.0",900,75,74,70,68,"top_left","top_right",1196,"blue","Switch","left",77,"Color","triangle",1000,0,"blue_key",100,"color",0,1
"A014297063OPPUEBTOLM",421341,1600,708,1533,"3137ONMDKHPCZTRETZ5VK90B26FEG3","05/11/2018@16:15:03","rvts_first","Mozilla/5.0 (Windows NT 10.0; WOW64; rv:63.0) Gecko/20100101 Firefox/63.0",900,75,74,70,68,"top_left","top_right",3197,"red","Switch","right",78,"Shape","circle",1000,0,"circle_key",100,"shape",0,1
"A014297063OPPUEBTOLM",421341,1600,708,1533,"3137ONMDKHPCZTRETZ5VK90B26FEG3","05/11/2018@16:15:03","rvts_first","Mozilla/5.0 (Windows NT 10.0; WOW64; rv:63.0) Gecko/20100101 Firefox/63.0",900,75,74,70,68,"top_left","top_right",2314,"blue","Repeat","right",79,"Shape","triangle",100,0,"tri_key",1000,"shape",0,0
"A014297063OPPUEBTOLM",421341,1600,708,1533,"3137ONMDKHPCZTRETZ5VK90B26FEG3","05/11/2018@16:15:03","rvts_first","Mozilla/5.0 (Windows NT 10.0; WOW64; rv:63.0) Gecko/20100101 Firefox/63.0",900,75,74,70,68,"top_left","top_right",1882,"blue","Switch","left",80,"Color","triangle",1000,0,"blue_key",100,"color",0,1
"A014297063OPPUEBTOLM",421341,1600,708,1533,"3137ONMDKHPCZTRETZ5VK90B26FEG3","05/11/2018@16:15:03","rvts_first","Mozilla/5.0 (Windows NT 10.0; WOW64; rv:63.0) Gecko/20100101 Firefox/63.0",900,75,74,70,68,"top_left","top_right",1508,"red","Repeat","left",81,"Color","circle",1000,0,"red_key",100,"color",0,0
"A014297063OPPUEBTOLM",421341,1600,708,1533,"3137ONMDKHPCZTRETZ5VK90B26FEG3","05/11/2018@16:15:03","rvts_first","Mozilla/5.0 (Windows NT 10.0; WOW64; rv:63.0) Gecko/20100101 Firefox/63.0",900,75,74,70,68,"top_left","top_right",2250,"red","Switch","right",82,"Shape","triangle",100,0,"tri_key",1000,"shape",0,1
"A014297063OPPUEBTOLM",421341,1600,708,1533,"3137ONMDKHPCZTRETZ5VK90B26FEG3","05/11/2018@16:15:03","rvts_first","Mozilla/5.0 (Windows NT 10.0; WOW64; rv:63.0) Gecko/20100101 Firefox/63.0",900,75,74,70,68,"top_left","top_right",987,"blue","Repeat","right",83,"Shape","triangle",1000,0,"tri_key",100,"shape",0,0
"A014297063OPPUEBTOLM",421341,1600,708,1533,"3137ONMDKHPCZTRETZ5VK90B26FEG3","05/11/2018@16:15:03","rvts_first","Mozilla/5.0 (Windows NT 10.0; WOW64; rv:63.0) Gecko/20100101 Firefox/63.0",900,75,74,70,68,"top_left","top_right",1173,"blue","Switch","left",84,"Color","circle",100,0,"blue_key",1000,"color",0,1
"A014297063OPPUEBTOLM",421341,1600,708,1533,"3137ONMDKHPCZTRETZ5VK90B26FEG3","05/11/2018@16:15:03","rvts_first","Mozilla/5.0 (Windows NT 10.0; WOW64; rv:63.0) Gecko/20100101 Firefox/63.0",900,75,74,70,68,"top_left","top_right",1052,"red","Repeat","left",85,"Color","triangle",100,0,"red_key",1000,"color",0,0
"A014297063OPPUEBTOLM",421341,1600,708,1533,"3137ONMDKHPCZTRETZ5VK90B26FEG3","05/11/2018@16:15:03","rvts_first","Mozilla/5.0 (Windows NT 10.0; WOW64; rv:63.0) Gecko/20100101 Firefox/63.0",900,75,74,70,68,"top_left","top_right",1904,"blue","Repeat","left",86,"Color","triangle",100,0,"blue_key",1000,"color",0,0
"A014297063OPPUEBTOLM",421341,1600,708,1533,"3137ONMDKHPCZTRETZ5VK90B26FEG3","05/11/2018@16:15:03","rvts_first","Mozilla/5.0 (Windows NT 10.0; WOW64; rv:63.0) Gecko/20100101 Firefox/63.0",900,75,74,70,68,"top_left","top_right",2330,"blue","Repeat","left",87,"Color","triangle",1000,0,"blue_key",100,"color",0,0
"A014297063OPPUEBTOLM",421341,1600,708,1533,"3137ONMDKHPCZTRETZ5VK90B26FEG3","05/11/2018@16:15:03","rvts_first","Mozilla/5.0 (Windows NT 10.0; WOW64; rv:63.0) Gecko/20100101 Firefox/63.0",900,75,74,70,68,"top_left","top_right",1450,"red","Repeat","left",88,"Color","circle",1000,0,"red_key",100,"color",0,0
"A014297063OPPUEBTOLM",421341,1600,708,1533,"3137ONMDKHPCZTRETZ5VK90B26FEG3","05/11/2018@16:15:03","rvts_first","Mozilla/5.0 (Windows NT 10.0; WOW64; rv:63.0) Gecko/20100101 Firefox/63.0",900,75,74,70,68,"top_left","top_right",1576,"blue","Switch","right",89,"Shape","triangle",1000,0,"tri_key",100,"shape",0,1
"A014297063OPPUEBTOLM",421341,1600,708,1533,"3137ONMDKHPCZTRETZ5VK90B26FEG3","05/11/2018@16:15:03","rvts_first","Mozilla/5.0 (Windows NT 10.0; WOW64; rv:63.0) Gecko/20100101 Firefox/63.0",900,75,74,70,68,"top_left","top_right",1762,"blue","Switch","left",90,"Color","triangle",1000,0,"blue_key",100,"color",0,1
"A014297063OPPUEBTOLM",421341,1600,708,1533,"3137ONMDKHPCZTRETZ5VK90B26FEG3","05/11/2018@16:15:03","rvts_first","Mozilla/5.0 (Windows NT 10.0; WOW64; rv:63.0) Gecko/20100101 Firefox/63.0",900,75,74,70,68,"top_left","top_right",2141,"blue","Switch","right",91,"Shape","circle",1000,0,"circle_key",100,"shape",0,1
"A014297063OPPUEBTOLM",421341,1600,708,1533,"3137ONMDKHPCZTRETZ5VK90B26FEG3","05/11/2018@16:15:03","rvts_first","Mozilla/5.0 (Windows NT 10.0; WOW64; rv:63.0) Gecko/20100101 Firefox/63.0",900,75,74,70,68,"top_left","top_right",1706,"red","Switch","left",92,"Color","circle",1000,0,"red_key",100,"color",0,1
"A014297063OPPUEBTOLM",421341,1600,708,1533,"3137ONMDKHPCZTRETZ5VK90B26FEG3","05/11/2018@16:15:03","rvts_first","Mozilla/5.0 (Windows NT 10.0; WOW64; rv:63.0) Gecko/20100101 Firefox/63.0",900,75,74,70,68,"top_left","top_right",1943,"red","Repeat","left",93,"Color","triangle",1000,0,"red_key",100,"color",0,0
"A014297063OPPUEBTOLM",421341,1600,708,1533,"3137ONMDKHPCZTRETZ5VK90B26FEG3","05/11/2018@16:15:03","rvts_first","Mozilla/5.0 (Windows NT 10.0; WOW64; rv:63.0) Gecko/20100101 Firefox/63.0",900,75,74,70,68,"top_left","top_right",1763,"blue","Repeat","left",94,"Color","triangle",1000,0,"blue_key",100,"color",0,0
"A014297063OPPUEBTOLM",421341,1600,708,1533,"3137ONMDKHPCZTRETZ5VK90B26FEG3","05/11/2018@16:15:03","rvts_first","Mozilla/5.0 (Windows NT 10.0; WOW64; rv:63.0) Gecko/20100101 Firefox/63.0",900,75,74,70,68,"top_left","top_right",1197,"blue","Switch","right",95,"Shape","triangle",1000,0,"tri_key",100,"shape",0,1
"A014297063OPPUEBTOLM",421341,1600,708,1533,"3137ONMDKHPCZTRETZ5VK90B26FEG3","05/11/2018@16:15:03","rvts_first","Mozilla/5.0 (Windows NT 10.0; WOW64; rv:63.0) Gecko/20100101 Firefox/63.0",900,75,74,70,68,"top_left","top_right",820,"red","Repeat","right",96,"Shape","circle",100,0,"circle_key",1000,"shape",0,0
"A014297063OPPUEBTOLM",421341,1600,708,1533,"3137ONMDKHPCZTRETZ5VK90B26FEG3","05/11/2018@16:15:03","rvts_first","Mozilla/5.0 (Windows NT 10.0; WOW64; rv:63.0) Gecko/20100101 Firefox/63.0",900,75,74,70,68,"top_left","top_right",1460,"red","Switch","left",97,"Color","triangle",100,0,"red_key",1000,"color",0,1
"A014297063OPPUEBTOLM",421341,1600,708,1533,"3137ONMDKHPCZTRETZ5VK90B26FEG3","05/11/2018@16:15:03","rvts_first","Mozilla/5.0 (Windows NT 10.0; WOW64; rv:63.0) Gecko/20100101 Firefox/63.0",900,75,74,70,68,"top_left","top_right",1784,"red","Switch","right",98,"Shape","triangle",1000,0,"tri_key",100,"shape",0,1
"A014297063OPPUEBTOLM",421341,1600,708,1533,"3137ONMDKHPCZTRETZ5VK90B26FEG3","05/11/2018@16:15:03","rvts_first","Mozilla/5.0 (Windows NT 10.0; WOW64; rv:63.0) Gecko/20100101 Firefox/63.0",900,75,74,70,68,"top_left","top_right",1620,"blue","Switch","left",99,"Color","triangle",1000,0,"blue_key",100,"color",0,1
"A014297063OPPUEBTOLM",421341,1600,708,1533,"3137ONMDKHPCZTRETZ5VK90B26FEG3","05/11/2018@16:15:03","rvts_first","Mozilla/5.0 (Windows NT 10.0; WOW64; rv:63.0) Gecko/20100101 Firefox/63.0",900,75,74,70,68,"top_left","top_right",2266,"blue","Repeat","left",100,"Color","circle",1000,0,"blue_key",100,"color",0,0
"A014297063OPPUEBTOLM",421341,1600,708,1533,"3137ONMDKHPCZTRETZ5VK90B26FEG3","05/11/2018@16:15:03","rvts_first","Mozilla/5.0 (Windows NT 10.0; WOW64; rv:63.0) Gecko/20100101 Firefox/63.0",900,75,74,70,68,"top_left","top_right",1030,"blue","Repeat","left",101,"Color","circle",1000,0,"blue_key",100,"color",0,0
"A014297063OPPUEBTOLM",421341,1600,708,1533,"3137ONMDKHPCZTRETZ5VK90B26FEG3","05/11/2018@16:15:03","rvts_first","Mozilla/5.0 (Windows NT 10.0; WOW64; rv:63.0) Gecko/20100101 Firefox/63.0",900,75,74,70,68,"top_left","top_right",1287,"red","Switch","right",102,"Shape","triangle",1000,0,"tri_key",100,"shape",0,1
"A014297063OPPUEBTOLM",421341,1600,708,1533,"3137ONMDKHPCZTRETZ5VK90B26FEG3","05/11/2018@16:15:03","rvts_first","Mozilla/5.0 (Windows NT 10.0; WOW64; rv:63.0) Gecko/20100101 Firefox/63.0",900,75,74,70,68,"top_left","top_right",1141,"red","Repeat","right",103,"Shape","circle",1000,0,"circle_key",100,"shape",0,0
"A014297063OPPUEBTOLM",421341,1600,708,1533,"3137ONMDKHPCZTRETZ5VK90B26FEG3","05/11/2018@16:15:03","rvts_first","Mozilla/5.0 (Windows NT 10.0; WOW64; rv:63.0) Gecko/20100101 Firefox/63.0",900,75,74,70,68,"top_left","top_right",1325,"red","Switch","left",104,"Color","triangle",1000,0,"red_key",100,"color",0,1
"A014297063OPPUEBTOLM",421341,1600,708,1533,"3137ONMDKHPCZTRETZ5VK90B26FEG3","05/11/2018@16:15:03","rvts_first","Mozilla/5.0 (Windows NT 10.0; WOW64; rv:63.0) Gecko/20100101 Firefox/63.0",900,75,74,70,68,"top_left","top_right",1323,"red","Switch","right",105,"Shape","circle",1000,0,"circle_key",100,"shape",0,1
"A014297063OPPUEBTOLM",421341,1600,708,1533,"3137ONMDKHPCZTRETZ5VK90B26FEG3","05/11/2018@16:15:03","rvts_first","Mozilla/5.0 (Windows NT 10.0; WOW64; rv:63.0) Gecko/20100101 Firefox/63.0",900,75,74,70,68,"top_left","top_right",947,"blue","Switch","left",106,"Color","circle",100,0,"blue_key",1000,"color",0,1
"A014297063OPPUEBTOLM",421341,1600,708,1533,"3137ONMDKHPCZTRETZ5VK90B26FEG3","05/11/2018@16:15:03","rvts_first","Mozilla/5.0 (Windows NT 10.0; WOW64; rv:63.0) Gecko/20100101 Firefox/63.0",900,75,74,70,68,"top_left","top_right",1140,"blue","Switch","right",107,"Shape","triangle",100,0,"tri_key",1000,"shape",0,1
"A014297063OPPUEBTOLM",421341,1600,708,1533,"3137ONMDKHPCZTRETZ5VK90B26FEG3","05/11/2018@16:15:03","rvts_first","Mozilla/5.0 (Windows NT 10.0; WOW64; rv:63.0) Gecko/20100101 Firefox/63.0",900,75,74,70,68,"top_left","top_right",926,"red","Repeat","right",108,"Shape","circle",100,0,"circle_key",1000,"shape",0,0
"A014297063OPPUEBTOLM",421341,1600,708,1533,"3137ONMDKHPCZTRETZ5VK90B26FEG3","05/11/2018@16:15:03","rvts_first","Mozilla/5.0 (Windows NT 10.0; WOW64; rv:63.0) Gecko/20100101 Firefox/63.0",900,75,74,70,68,"top_left","top_right",954,"blue","Switch","left",109,"Color","triangle",100,0,"blue_key",1000,"color",0,1
"A014297063OPPUEBTOLM",421341,1600,708,1533,"3137ONMDKHPCZTRETZ5VK90B26FEG3","05/11/2018@16:15:03","rvts_first","Mozilla/5.0 (Windows NT 10.0; WOW64; rv:63.0) Gecko/20100101 Firefox/63.0",900,75,74,70,68,"top_left","top_right",2651,"blue","Switch","right",110,"Shape","triangle",1000,0,"tri_key",100,"shape",0,1
"A014297063OPPUEBTOLM",421341,1600,708,1533,"3137ONMDKHPCZTRETZ5VK90B26FEG3","05/11/2018@16:15:03","rvts_first","Mozilla/5.0 (Windows NT 10.0; WOW64; rv:63.0) Gecko/20100101 Firefox/63.0",900,75,74,70,68,"top_left","top_right",1561,"blue","Repeat","right",111,"Shape","triangle",1000,0,"tri_key",100,"shape",0,0
"A014297063OPPUEBTOLM",421341,1600,708,1533,"3137ONMDKHPCZTRETZ5VK90B26FEG3","05/11/2018@16:15:03","rvts_first","Mozilla/5.0 (Windows NT 10.0; WOW64; rv:63.0) Gecko/20100101 Firefox/63.0",900,75,74,70,68,"top_left","top_right",1030,"red","Repeat","right",112,"Shape","triangle",100,0,"tri_key",1000,"shape",0,0
"A014297063OPPUEBTOLM",421341,1600,708,1533,"3137ONMDKHPCZTRETZ5VK90B26FEG3","05/11/2018@16:15:03","rvts_first","Mozilla/5.0 (Windows NT 10.0; WOW64; rv:63.0) Gecko/20100101 Firefox/63.0",900,75,74,70,68,"top_left","top_right",1252,"blue","Switch","left",113,"Color","circle",100,0,"blue_key",1000,"color",0,1
"A014297063OPPUEBTOLM",421341,1600,708,1533,"3137ONMDKHPCZTRETZ5VK90B26FEG3","05/11/2018@16:15:03","rvts_first","Mozilla/5.0 (Windows NT 10.0; WOW64; rv:63.0) Gecko/20100101 Firefox/63.0",900,75,74,70,68,"top_left","top_right",996,"red","Switch","right",114,"Shape","triangle",100,0,"tri_key",1000,"shape",0,1
"A014297063OPPUEBTOLM",421341,1600,708,1533,"3137ONMDKHPCZTRETZ5VK90B26FEG3","05/11/2018@16:15:03","rvts_first","Mozilla/5.0 (Windows NT 10.0; WOW64; rv:63.0) Gecko/20100101 Firefox/63.0",900,75,74,70,68,"top_left","top_right",862,"blue","Repeat","right",115,"Shape","triangle",1000,0,"tri_key",100,"shape",0,0
"A014297063OPPUEBTOLM",421341,1600,708,1533,"3137ONMDKHPCZTRETZ5VK90B26FEG3","05/11/2018@16:15:03","rvts_first","Mozilla/5.0 (Windows NT 10.0; WOW64; rv:63.0) Gecko/20100101 Firefox/63.0",900,75,74,70,68,"top_left","top_right",941,"red","Repeat","right",116,"Shape","triangle",100,0,"tri_key",1000,"shape",0,0
"A014297063OPPUEBTOLM",421341,1600,708,1533,"3137ONMDKHPCZTRETZ5VK90B26FEG3","05/11/2018@16:15:03","rvts_first","Mozilla/5.0 (Windows NT 10.0; WOW64; rv:63.0) Gecko/20100101 Firefox/63.0",900,75,74,70,68,"top_left","top_right",2241,"blue","Switch","left",117,"Color","circle",1000,0,"blue_key",100,"color",0,1
"A014297063OPPUEBTOLM",421341,1600,708,1533,"3137ONMDKHPCZTRETZ5VK90B26FEG3","05/11/2018@16:15:03","rvts_first","Mozilla/5.0 (Windows NT 10.0; WOW64; rv:63.0) Gecko/20100101 Firefox/63.0",900,75,74,70,68,"top_left","top_right",1478,"blue","Switch","right",118,"Shape","triangle",1000,0,"tri_key",100,"shape",0,1
"A014297063OPPUEBTOLM",421341,1600,708,1533,"3137ONMDKHPCZTRETZ5VK90B26FEG3","05/11/2018@16:15:03","rvts_first","Mozilla/5.0 (Windows NT 10.0; WOW64; rv:63.0) Gecko/20100101 Firefox/63.0",900,75,74,70,68,"top_left","top_right",1847,"blue","Repeat","right",119,"Shape","circle",1000,0,"circle_key",100,"shape",0,0
"A014297063OPPUEBTOLM",421341,1600,708,1533,"3137ONMDKHPCZTRETZ5VK90B26FEG3","05/11/2018@16:15:03","rvts_first","Mozilla/5.0 (Windows NT 10.0; WOW64; rv:63.0) Gecko/20100101 Firefox/63.0",900,75,74,70,68,"top_left","top_right",1195,"red","Repeat","right",120,"Shape","circle",100,0,"circle_key",1000,"shape",0,0
"A014297063OPPUEBTOLM",421341,1600,708,1533,"3137ONMDKHPCZTRETZ5VK90B26FEG3","05/11/2018@16:15:03","rvts_first","Mozilla/5.0 (Windows NT 10.0; WOW64; rv:63.0) Gecko/20100101 Firefox/63.0",900,75,74,70,68,"top_left","top_right",1813,"blue","Switch","left",121,"Color","triangle",1000,0,"blue_key",100,"color",0,1
"A014297063OPPUEBTOLM",421341,1600,708,1533,"3137ONMDKHPCZTRETZ5VK90B26FEG3","05/11/2018@16:15:03","rvts_first","Mozilla/5.0 (Windows NT 10.0; WOW64; rv:63.0) Gecko/20100101 Firefox/63.0",900,75,74,70,68,"top_left","top_right",1639,"blue","Repeat","left",122,"Color","circle",1000,0,"blue_key",100,"color",0,0
"A014297063OPPUEBTOLM",421341,1600,708,1533,"3137ONMDKHPCZTRETZ5VK90B26FEG3","05/11/2018@16:15:03","rvts_first","Mozilla/5.0 (Windows NT 10.0; WOW64; rv:63.0) Gecko/20100101 Firefox/63.0",900,75,74,70,68,"top_left","top_right",1995,"blue","Repeat","left",123,"Color","triangle",100,0,"blue_key",1000,"color",0,0
"A014297063OPPUEBTOLM",421341,1600,708,1533,"3137ONMDKHPCZTRETZ5VK90B26FEG3","05/11/2018@16:15:03","rvts_first","Mozilla/5.0 (Windows NT 10.0; WOW64; rv:63.0) Gecko/20100101 Firefox/63.0",900,75,74,70,68,"top_left","top_right",1188,"red","Switch","right",124,"Shape","circle",100,0,"circle_key",1000,"shape",0,1
"A014297063OPPUEBTOLM",421341,1600,708,1533,"3137ONMDKHPCZTRETZ5VK90B26FEG3","05/11/2018@16:15:03","rvts_first","Mozilla/5.0 (Windows NT 10.0; WOW64; rv:63.0) Gecko/20100101 Firefox/63.0",900,75,74,70,68,"top_left","top_right",726,"blue","Repeat","right",125,"Shape","circle",100,0,"circle_key",1000,"shape",0,0
"A014297063OPPUEBTOLM",421341,1600,708,1533,"3137ONMDKHPCZTRETZ5VK90B26FEG3","05/11/2018@16:15:03","rvts_first","Mozilla/5.0 (Windows NT 10.0; WOW64; rv:63.0) Gecko/20100101 Firefox/63.0",900,75,74,70,68,"top_left","top_right",1114,"blue","Switch","left",126,"Color","triangle",100,0,"blue_key",1000,"color",0,1
"A014297063OPPUEBTOLM",421341,1600,708,1533,"3137ONMDKHPCZTRETZ5VK90B26FEG3","05/11/2018@16:15:03","rvts_first","Mozilla/5.0 (Windows NT 10.0; WOW64; rv:63.0) Gecko/20100101 Firefox/63.0",900,75,74,70,68,"top_left","top_right",1358,"red","Switch","right",127,"Shape","circle",1000,0,"circle_key",100,"shape",0,1
"A014297063OPPUEBTOLM",421341,1600,708,1533,"3137ONMDKHPCZTRETZ5VK90B26FEG3","05/11/2018@16:15:03","rvts_first","Mozilla/5.0 (Windows NT 10.0; WOW64; rv:63.0) Gecko/20100101 Firefox/63.0",900,75,74,70,68,"top_left","top_right",1012,"red","Repeat","right",128,"Shape","triangle",100,0,"tri_key",1000,"shape",0,0
"A014297063OPPUEBTOLM",421341,1600,708,1533,"3137ONMDKHPCZTRETZ5VK90B26FEG3","05/11/2018@16:15:03","rvts_first","Mozilla/5.0 (Windows NT 10.0; WOW64; rv:63.0) Gecko/20100101 Firefox/63.0",900,75,74,70,68,"top_left","top_right",1130,"blue","Switch","left",129,"Color","circle",100,0,"blue_key",1000,"color",0,1
"A014297063OPPUEBTOLM",421341,1600,708,1533,"3137ONMDKHPCZTRETZ5VK90B26FEG3","05/11/2018@16:15:03","rvts_first","Mozilla/5.0 (Windows NT 10.0; WOW64; rv:63.0) Gecko/20100101 Firefox/63.0",900,75,74,70,68,"top_left","top_right",986,"blue","Switch","right",130,"Shape","triangle",100,0,"tri_key",1000,"shape",0,1
"A014297063OPPUEBTOLM",421341,1600,708,1533,"3137ONMDKHPCZTRETZ5VK90B26FEG3","05/11/2018@16:15:03","rvts_first","Mozilla/5.0 (Windows NT 10.0; WOW64; rv:63.0) Gecko/20100101 Firefox/63.0",900,75,74,70,68,"top_left","top_right",714,"blue","Repeat","right",131,"Shape","triangle",1000,0,"tri_key",100,"shape",0,0
"A014297063OPPUEBTOLM",421341,1600,708,1533,"3137ONMDKHPCZTRETZ5VK90B26FEG3","05/11/2018@16:15:03","rvts_first","Mozilla/5.0 (Windows NT 10.0; WOW64; rv:63.0) Gecko/20100101 Firefox/63.0",900,75,74,70,68,"top_left","top_right",1391,"blue","Switch","left",132,"Color","triangle",1000,0,"blue_key",100,"color",0,1
"A014297063OPPUEBTOLM",421341,1600,708,1533,"3137ONMDKHPCZTRETZ5VK90B26FEG3","05/11/2018@16:15:03","rvts_first","Mozilla/5.0 (Windows NT 10.0; WOW64; rv:63.0) Gecko/20100101 Firefox/63.0",900,75,74,70,68,"top_left","top_right",1139,"blue","Switch","right",133,"Shape","circle",1000,0,"circle_key",100,"shape",0,1
"A014297063OPPUEBTOLM",421341,1600,708,1533,"3137ONMDKHPCZTRETZ5VK90B26FEG3","05/11/2018@16:15:03","rvts_first","Mozilla/5.0 (Windows NT 10.0; WOW64; rv:63.0) Gecko/20100101 Firefox/63.0",900,75,74,70,68,"top_left","top_right",965,"red","Switch","left",134,"Color","triangle",100,0,"red_key",1000,"color",0,1
"A014297063OPPUEBTOLM",421341,1600,708,1533,"3137ONMDKHPCZTRETZ5VK90B26FEG3","05/11/2018@16:15:03","rvts_first","Mozilla/5.0 (Windows NT 10.0; WOW64; rv:63.0) Gecko/20100101 Firefox/63.0",900,75,74,70,68,"top_left","top_right",1153,"blue","Repeat","left",135,"Color","circle",100,0,"blue_key",1000,"color",0,0
"A014297063OPPUEBTOLM",421341,1600,708,1533,"3137ONMDKHPCZTRETZ5VK90B26FEG3","05/11/2018@16:15:03","rvts_first","Mozilla/5.0 (Windows NT 10.0; WOW64; rv:63.0) Gecko/20100101 Firefox/63.0",900,75,74,70,68,"top_left","top_right",2621,"red","Repeat","left",136,"Color","triangle",1000,0,"red_key",100,"color",0,0
"A014297063OPPUEBTOLM",421341,1600,708,1533,"3137ONMDKHPCZTRETZ5VK90B26FEG3","05/11/2018@16:15:03","rvts_first","Mozilla/5.0 (Windows NT 10.0; WOW64; rv:63.0) Gecko/20100101 Firefox/63.0",900,75,74,70,68,"top_left","top_right",1096,"red","Switch","right",137,"Shape","circle",100,0,"circle_key",1000,"shape",0,1
"A014297063OPPUEBTOLM",421341,1600,708,1533,"3137ONMDKHPCZTRETZ5VK90B26FEG3","05/11/2018@16:15:03","rvts_first","Mozilla/5.0 (Windows NT 10.0; WOW64; rv:63.0) Gecko/20100101 Firefox/63.0",900,75,74,70,68,"top_left","top_right",2112,"blue","Repeat","right",138,"Shape","triangle",1000,0,"tri_key",100,"shape",0,0
"A014297063OPPUEBTOLM",421341,1600,708,1533,"3137ONMDKHPCZTRETZ5VK90B26FEG3","05/11/2018@16:15:03","rvts_first","Mozilla/5.0 (Windows NT 10.0; WOW64; rv:63.0) Gecko/20100101 Firefox/63.0",900,75,74,70,68,"top_left","top_right",1033,"blue","Repeat","right",139,"Shape","triangle",1000,0,"tri_key",100,"shape",0,0
"A014297063OPPUEBTOLM",421341,1600,708,1533,"3137ONMDKHPCZTRETZ5VK90B26FEG3","05/11/2018@16:15:03","rvts_first","Mozilla/5.0 (Windows NT 10.0; WOW64; rv:63.0) Gecko/20100101 Firefox/63.0",900,75,74,70,68,"top_left","top_right",1102,"red","Switch","left",140,"Color","triangle",100,0,"red_key",1000,"color",0,1
"A014297063OPPUEBTOLM",421341,1600,708,1533,"3137ONMDKHPCZTRETZ5VK90B26FEG3","05/11/2018@16:15:03","rvts_first","Mozilla/5.0 (Windows NT 10.0; WOW64; rv:63.0) Gecko/20100101 Firefox/63.0",900,75,74,70,68,"top_left","top_right",1266,"blue","Switch","right",141,"Shape","triangle",1000,0,"tri_key",100,"shape",0,1
"A014297063OPPUEBTOLM",421341,1600,708,1533,"3137ONMDKHPCZTRETZ5VK90B26FEG3","05/11/2018@16:15:03","rvts_first","Mozilla/5.0 (Windows NT 10.0; WOW64; rv:63.0) Gecko/20100101 Firefox/63.0",900,75,74,70,68,"top_left","top_right",1491,"blue","Switch","left",142,"Color","circle",100,0,"blue_key",1000,"color",0,1
"A014297063OPPUEBTOLM",421341,1600,708,1533,"3137ONMDKHPCZTRETZ5VK90B26FEG3","05/11/2018@16:15:03","rvts_first","Mozilla/5.0 (Windows NT 10.0; WOW64; rv:63.0) Gecko/20100101 Firefox/63.0",900,75,74,70,68,"top_left","top_right",1292,"blue","Switch","right",143,"Shape","circle",1000,0,"circle_key",100,"shape",0,1
"A014297063OPPUEBTOLM",421341,1600,708,1533,"3137ONMDKHPCZTRETZ5VK90B26FEG3","05/11/2018@16:15:03","rvts_first","Mozilla/5.0 (Windows NT 10.0; WOW64; rv:63.0) Gecko/20100101 Firefox/63.0",900,75,74,70,68,"top_left","top_right",1767,"red","Switch","left",144,"Color","triangle",1000,0,"red_key",100,"color",0,1
"A014297063OPPUEBTOLM",421341,1600,708,1533,"3137ONMDKHPCZTRETZ5VK90B26FEG3","05/11/2018@16:15:03","rvts_first","Mozilla/5.0 (Windows NT 10.0; WOW64; rv:63.0) Gecko/20100101 Firefox/63.0",900,75,74,70,68,"top_left","top_right",1031,"red","Switch","right",145,"Shape","triangle",100,0,"tri_key",1000,"shape",0,1
"A014297063OPPUEBTOLM",421341,1600,708,1533,"3137ONMDKHPCZTRETZ5VK90B26FEG3","05/11/2018@16:15:03","rvts_first","Mozilla/5.0 (Windows NT 10.0; WOW64; rv:63.0) Gecko/20100101 Firefox/63.0",900,75,74,70,68,"top_left","top_right",1518,"blue","Switch","left",146,"Color","circle",100,0,"blue_key",1000,"color",0,1
"A014297063OPPUEBTOLM",421341,1600,708,1533,"3137ONMDKHPCZTRETZ5VK90B26FEG3","05/11/2018@16:15:03","rvts_first","Mozilla/5.0 (Windows NT 10.0; WOW64; rv:63.0) Gecko/20100101 Firefox/63.0",900,75,74,70,68,"top_left","top_right",1095,"red","Repeat","left",147,"Color","circle",100,0,"red_key",1000,"color",0,0
"A014297063OPPUEBTOLM",421341,1600,708,1533,"3137ONMDKHPCZTRETZ5VK90B26FEG3","05/11/2018@16:15:03","rvts_first","Mozilla/5.0 (Windows NT 10.0; WOW64; rv:63.0) Gecko/20100101 Firefox/63.0",900,75,74,70,68,"top_left","top_right",1298,"blue","Switch","right",148,"Shape","circle",1000,0,"circle_key",100,"shape",0,1
"A014297063OPPUEBTOLM",421341,1600,708,1533,"3137ONMDKHPCZTRETZ5VK90B26FEG3","05/11/2018@16:15:03","rvts_first","Mozilla/5.0 (Windows NT 10.0; WOW64; rv:63.0) Gecko/20100101 Firefox/63.0",900,75,74,70,68,"top_left","top_right",566,"blue","Repeat","right",149,"Shape","circle",100,0,"circle_key",1000,"shape",0,0
"A014297063OPPUEBTOLM",421341,1600,708,1533,"3137ONMDKHPCZTRETZ5VK90B26FEG3","05/11/2018@16:15:03","rvts_first","Mozilla/5.0 (Windows NT 10.0; WOW64; rv:63.0) Gecko/20100101 Firefox/63.0",900,75,74,70,68,"top_left","top_right",569,"red","Repeat","right",150,"Shape","circle",1000,0,"circle_key",100,"shape",0,0
"A014297063OPPUEBTOLM",421341,1600,708,1533,"3137ONMDKHPCZTRETZ5VK90B26FEG3","05/11/2018@16:15:03","rvts_first","Mozilla/5.0 (Windows NT 10.0; WOW64; rv:63.0) Gecko/20100101 Firefox/63.0",900,75,74,70,68,"top_left","top_right",1514,"blue","Switch","left",151,"Color","circle",1000,0,"blue_key",100,"color",0,1
"A014297063OPPUEBTOLM",421341,1600,708,1533,"3137ONMDKHPCZTRETZ5VK90B26FEG3","05/11/2018@16:15:03","rvts_first","Mozilla/5.0 (Windows NT 10.0; WOW64; rv:63.0) Gecko/20100101 Firefox/63.0",900,75,74,70,68,"top_left","top_right",1276,"blue","Switch","right",152,"Shape","triangle",1000,0,"tri_key",100,"shape",0,1
"A014297063OPPUEBTOLM",421341,1600,708,1533,"3137ONMDKHPCZTRETZ5VK90B26FEG3","05/11/2018@16:15:03","rvts_first","Mozilla/5.0 (Windows NT 10.0; WOW64; rv:63.0) Gecko/20100101 Firefox/63.0",900,75,74,70,68,"top_left","top_right",1087,"blue","Repeat","right",153,"Shape","triangle",1000,0,"tri_key",100,"shape",0,0
"A014297063OPPUEBTOLM",421341,1600,708,1533,"3137ONMDKHPCZTRETZ5VK90B26FEG3","05/11/2018@16:15:03","rvts_first","Mozilla/5.0 (Windows NT 10.0; WOW64; rv:63.0) Gecko/20100101 Firefox/63.0",900,75,74,70,68,"top_left","top_right",2148,"red","Repeat","right",154,"Shape","circle",100,0,"circle_key",1000,"shape",0,0
"A014297063OPPUEBTOLM",421341,1600,708,1533,"3137ONMDKHPCZTRETZ5VK90B26FEG3","05/11/2018@16:15:03","rvts_first","Mozilla/5.0 (Windows NT 10.0; WOW64; rv:63.0) Gecko/20100101 Firefox/63.0",900,75,74,70,68,"top_left","top_right",1200,"blue","Switch","left",155,"Color","triangle",100,0,"blue_key",1000,"color",0,1
"A014297063OPPUEBTOLM",421341,1600,708,1533,"3137ONMDKHPCZTRETZ5VK90B26FEG3","05/11/2018@16:15:03","rvts_first","Mozilla/5.0 (Windows NT 10.0; WOW64; rv:63.0) Gecko/20100101 Firefox/63.0",900,75,74,70,68,"top_left","top_right",1368,"red","Switch","right",156,"Shape","triangle",1000,0,"tri_key",100,"shape",0,1
"A014297063OPPUEBTOLM",421341,1600,708,1533,"3137ONMDKHPCZTRETZ5VK90B26FEG3","05/11/2018@16:15:03","rvts_first","Mozilla/5.0 (Windows NT 10.0; WOW64; rv:63.0) Gecko/20100101 Firefox/63.0",900,75,74,70,68,"top_left","top_right",1234,"red","Switch","left",157,"Color","circle",100,0,"red_key",1000,"color",0,1
"A014297063OPPUEBTOLM",421341,1600,708,1533,"3137ONMDKHPCZTRETZ5VK90B26FEG3","05/11/2018@16:15:03","rvts_first","Mozilla/5.0 (Windows NT 10.0; WOW64; rv:63.0) Gecko/20100101 Firefox/63.0",900,75,74,70,68,"top_left","top_right",1460,"red","Repeat","left",158,"Color","circle",100,0,"red_key",1000,"color",0,0
"A014297063OPPUEBTOLM",421341,1600,708,1533,"3137ONMDKHPCZTRETZ5VK90B26FEG3","05/11/2018@16:15:03","rvts_first","Mozilla/5.0 (Windows NT 10.0; WOW64; rv:63.0) Gecko/20100101 Firefox/63.0",900,75,74,70,68,"top_left","top_right",875,"blue","Repeat","left",159,"Color","triangle",100,0,"blue_key",1000,"color",0,0
"A014297063OPPUEBTOLM",421341,1600,708,1533,"3137ONMDKHPCZTRETZ5VK90B26FEG3","05/11/2018@16:15:03","rvts_first","Mozilla/5.0 (Windows NT 10.0; WOW64; rv:63.0) Gecko/20100101 Firefox/63.0",900,75,74,70,68,"top_left","top_right",1028,"blue","Repeat","left",160,"Color","circle",100,0,"blue_key",1000,"color",0,0
"A17FGZ1I5P9RZA",425350,1366,708,1266,"33M4IA01QHLCUJR94FPZ72ZPKK7RXP","05/11/2018@11:42:11","cued_first","Mozilla/5.0 (Windows NT 10.0; Win64; x64) AppleWebKit/537.36 (KHTML, like Gecko) Chrome/70.0.3538.77 Safari/537.36",768,70,68,74,75,"top_right","top_left",607,"blue","Repeat","right",4,"Color","circle",100,0,"blue_key",1000,"color",0,0
"A17FGZ1I5P9RZA",425350,1366,708,1266,"33M4IA01QHLCUJR94FPZ72ZPKK7RXP","05/11/2018@11:42:11","cued_first","Mozilla/5.0 (Windows NT 10.0; Win64; x64) AppleWebKit/537.36 (KHTML, like Gecko) Chrome/70.0.3538.77 Safari/537.36",768,70,68,74,75,"top_right","top_left",792,"red","Repeat","right",5,"Color","triangle",1000,0,"red_key",100,"color",0,0
"A17FGZ1I5P9RZA",425350,1366,708,1266,"33M4IA01QHLCUJR94FPZ72ZPKK7RXP","05/11/2018@11:42:11","cued_first","Mozilla/5.0 (Windows NT 10.0; Win64; x64) AppleWebKit/537.36 (KHTML, like Gecko) Chrome/70.0.3538.77 Safari/537.36",768,70,68,74,75,"top_right","top_left",863,"blue","Switch","left",6,"Shape","circle",100,0,"circle_key",1000,"shape",0,1
"A17FGZ1I5P9RZA",425350,1366,708,1266,"33M4IA01QHLCUJR94FPZ72ZPKK7RXP","05/11/2018@11:42:11","cued_first","Mozilla/5.0 (Windows NT 10.0; Win64; x64) AppleWebKit/537.36 (KHTML, like Gecko) Chrome/70.0.3538.77 Safari/537.36",768,70,68,74,75,"top_right","top_left",701,"blue","Repeat","left",7,"Shape","circle",1000,0,"circle_key",100,"shape",0,0
"A17FGZ1I5P9RZA",425350,1366,708,1266,"33M4IA01QHLCUJR94FPZ72ZPKK7RXP","05/11/2018@11:42:11","cued_first","Mozilla/5.0 (Windows NT 10.0; Win64; x64) AppleWebKit/537.36 (KHTML, like Gecko) Chrome/70.0.3538.77 Safari/537.36",768,70,68,74,75,"top_right","top_left",1706,"blue","Switch","right",13,"Color","triangle",1000,0,"blue_key",100,"color",0,1
"A17FGZ1I5P9RZA",425350,1366,708,1266,"33M4IA01QHLCUJR94FPZ72ZPKK7RXP","05/11/2018@11:42:11","cued_first","Mozilla/5.0 (Windows NT 10.0; Win64; x64) AppleWebKit/537.36 (KHTML, like Gecko) Chrome/70.0.3538.77 Safari/537.36",768,70,68,74,75,"top_right","top_left",1094,"red","Switch","left",14,"Shape","triangle",1000,0,"tri_key",100,"shape",0,1
"A17FGZ1I5P9RZA",425350,1366,708,1266,"33M4IA01QHLCUJR94FPZ72ZPKK7RXP","05/11/2018@11:42:11","cued_first","Mozilla/5.0 (Windows NT 10.0; Win64; x64) AppleWebKit/537.36 (KHTML, like Gecko) Chrome/70.0.3538.77 Safari/537.36",768,70,68,74,75,"top_right","top_left",1121,"red","Switch","right",15,"Color","circle",1000,0,"red_key",100,"color",0,1
"A17FGZ1I5P9RZA",425350,1366,708,1266,"33M4IA01QHLCUJR94FPZ72ZPKK7RXP","05/11/2018@11:42:11","cued_first","Mozilla/5.0 (Windows NT 10.0; Win64; x64) AppleWebKit/537.36 (KHTML, like Gecko) Chrome/70.0.3538.77 Safari/537.36",768,70,68,74,75,"top_right","top_left",635,"blue","Repeat","left",18,"Shape","circle",1000,0,"circle_key",100,"shape",0,0
"A17FGZ1I5P9RZA",425350,1366,708,1266,"33M4IA01QHLCUJR94FPZ72ZPKK7RXP","05/11/2018@11:42:11","cued_first","Mozilla/5.0 (Windows NT 10.0; Win64; x64) AppleWebKit/537.36 (KHTML, like Gecko) Chrome/70.0.3538.77 Safari/537.36",768,70,68,74,75,"top_right","top_left",681,"red","Repeat","left",21,"Shape","circle",100,0,"circle_key",1000,"shape",0,0
"A17FGZ1I5P9RZA",425350,1366,708,1266,"33M4IA01QHLCUJR94FPZ72ZPKK7RXP","05/11/2018@11:42:11","cued_first","Mozilla/5.0 (Windows NT 10.0; Win64; x64) AppleWebKit/537.36 (KHTML, like Gecko) Chrome/70.0.3538.77 Safari/537.36",768,70,68,74,75,"top_right","top_left",624,"red","Repeat","right",30,"Color","circle",1000,0,"red_key",100,"color",0,0
"A17FGZ1I5P9RZA",425350,1366,708,1266,"33M4IA01QHLCUJR94FPZ72ZPKK7RXP","05/11/2018@11:42:11","cued_first","Mozilla/5.0 (Windows NT 10.0; Win64; x64) AppleWebKit/537.36 (KHTML, like Gecko) Chrome/70.0.3538.77 Safari/537.36",768,70,68,74,75,"top_right","top_left",822,"blue","Repeat","right",31,"Color","triangle",100,0,"blue_key",1000,"color",0,0
"A17FGZ1I5P9RZA",425350,1366,708,1266,"33M4IA01QHLCUJR94FPZ72ZPKK7RXP","05/11/2018@11:42:11","cued_first","Mozilla/5.0 (Windows NT 10.0; Win64; x64) AppleWebKit/537.36 (KHTML, like Gecko) Chrome/70.0.3538.77 Safari/537.36",768,70,68,74,75,"top_right","top_left",745,"red","Repeat","right",35,"Color","circle",1000,0,"red_key",100,"color",0,0
"A17FGZ1I5P9RZA",425350,1366,708,1266,"33M4IA01QHLCUJR94FPZ72ZPKK7RXP","05/11/2018@11:42:11","cued_first","Mozilla/5.0 (Windows NT 10.0; Win64; x64) AppleWebKit/537.36 (KHTML, like Gecko) Chrome/70.0.3538.77 Safari/537.36",768,70,68,74,75,"top_right","top_left",691,"red","Repeat","right",36,"Color","triangle",100,0,"red_key",1000,"color",0,0
"A17FGZ1I5P9RZA",425350,1366,708,1266,"33M4IA01QHLCUJR94FPZ72ZPKK7RXP","05/11/2018@11:42:11","cued_first","Mozilla/5.0 (Windows NT 10.0; Win64; x64) AppleWebKit/537.36 (KHTML, like Gecko) Chrome/70.0.3538.77 Safari/537.36",768,70,68,74,75,"top_right","top_left",740,"red","Repeat","right",39,"Color","circle",1000,0,"red_key",100,"color",0,0
"A17FGZ1I5P9RZA",425350,1366,708,1266,"33M4IA01QHLCUJR94FPZ72ZPKK7RXP","05/11/2018@11:42:11","cued_first","Mozilla/5.0 (Windows NT 10.0; Win64; x64) AppleWebKit/537.36 (KHTML, like Gecko) Chrome/70.0.3538.77 Safari/537.36",768,70,68,74,75,"top_right","top_left",462,"blue","Repeat","right",40,"Color","triangle",100,0,"blue_key",1000,"color",0,0
"A17FGZ1I5P9RZA",425350,1366,708,1266,"33M4IA01QHLCUJR94FPZ72ZPKK7RXP","05/11/2018@11:42:11","cued_first","Mozilla/5.0 (Windows NT 10.0; Win64; x64) AppleWebKit/537.36 (KHTML, like Gecko) Chrome/70.0.3538.77 Safari/537.36",768,70,68,74,75,"top_right","top_left",727,"blue","Repeat","right",41,"Color","circle",1000,0,"blue_key",100,"color",0,0
"A17FGZ1I5P9RZA",425350,1366,708,1266,"33M4IA01QHLCUJR94FPZ72ZPKK7RXP","05/11/2018@11:42:11","cued_first","Mozilla/5.0 (Windows NT 10.0; Win64; x64) AppleWebKit/537.36 (KHTML, like Gecko) Chrome/70.0.3538.77 Safari/537.36",768,70,68,74,75,"top_right","top_left",1109,"red","Repeat","right",42,"Color","triangle",1000,0,"red_key",100,"color",0,0
"A17FGZ1I5P9RZA",425350,1366,708,1266,"33M4IA01QHLCUJR94FPZ72ZPKK7RXP","05/11/2018@11:42:11","cued_first","Mozilla/5.0 (Windows NT 10.0; Win64; x64) AppleWebKit/537.36 (KHTML, like Gecko) Chrome/70.0.3538.77 Safari/537.36",768,70,68,74,75,"top_right","top_left",576,"blue","Repeat","right",43,"Color","circle",100,0,"blue_key",1000,"color",0,0
"A17FGZ1I5P9RZA",425350,1366,708,1266,"33M4IA01QHLCUJR94FPZ72ZPKK7RXP","05/11/2018@11:42:11","cued_first","Mozilla/5.0 (Windows NT 10.0; Win64; x64) AppleWebKit/537.36 (KHTML, like Gecko) Chrome/70.0.3538.77 Safari/537.36",768,70,68,74,75,"top_right","top_left",2375,"blue","Switch","left",46,"Shape","circle",1000,0,"circle_key",100,"shape",0,1
"A17FGZ1I5P9RZA",425350,1366,708,1266,"33M4IA01QHLCUJR94FPZ72ZPKK7RXP","05/11/2018@11:42:11","cued_first","Mozilla/5.0 (Windows NT 10.0; Win64; x64) AppleWebKit/537.36 (KHTML, like Gecko) Chrome/70.0.3538.77 Safari/537.36",768,70,68,74,75,"top_right","top_left",1117,"blue","Repeat","left",47,"Shape","circle",1000,0,"circle_key",100,"shape",0,0
"A17FGZ1I5P9RZA",425350,1366,708,1266,"33M4IA01QHLCUJR94FPZ72ZPKK7RXP","05/11/2018@11:42:11","cued_first","Mozilla/5.0 (Windows NT 10.0; Win64; x64) AppleWebKit/537.36 (KHTML, like Gecko) Chrome/70.0.3538.77 Safari/537.36",768,70,68,74,75,"top_right","top_left",1448,"red","Switch","right",48,"Color","circle",100,0,"red_key",1000,"color",0,1
"A17FGZ1I5P9RZA",425350,1366,708,1266,"33M4IA01QHLCUJR94FPZ72ZPKK7RXP","05/11/2018@11:42:11","cued_first","Mozilla/5.0 (Windows NT 10.0; Win64; x64) AppleWebKit/537.36 (KHTML, like Gecko) Chrome/70.0.3538.77 Safari/537.36",768,70,68,74,75,"top_right","top_left",913,"blue","Repeat","right",49,"Color","circle",1000,0,"blue_key",100,"color",0,0
"A17FGZ1I5P9RZA",425350,1366,708,1266,"33M4IA01QHLCUJR94FPZ72ZPKK7RXP","05/11/2018@11:42:11","cued_first","Mozilla/5.0 (Windows NT 10.0; Win64; x64) AppleWebKit/537.36 (KHTML, like Gecko) Chrome/70.0.3538.77 Safari/537.36",768,70,68,74,75,"top_right","top_left",713,"red","Repeat","right",50,"Color","triangle",1000,0,"red_key",100,"color",0,0
"A17FGZ1I5P9RZA",425350,1366,708,1266,"33M4IA01QHLCUJR94FPZ72ZPKK7RXP","05/11/2018@11:42:11","cued_first","Mozilla/5.0 (Windows NT 10.0; Win64; x64) AppleWebKit/537.36 (KHTML, like Gecko) Chrome/70.0.3538.77 Safari/537.36",768,70,68,74,75,"top_right","top_left",730,"red","Repeat","right",51,"Color","circle",100,0,"red_key",1000,"color",0,0
"A17FGZ1I5P9RZA",425350,1366,708,1266,"33M4IA01QHLCUJR94FPZ72ZPKK7RXP","05/11/2018@11:42:11","cued_first","Mozilla/5.0 (Windows NT 10.0; Win64; x64) AppleWebKit/537.36 (KHTML, like Gecko) Chrome/70.0.3538.77 Safari/537.36",768,70,68,74,75,"top_right","top_left",784,"blue","Repeat","right",52,"Color","circle",1000,0,"blue_key",100,"color",0,0
"A17FGZ1I5P9RZA",425350,1366,708,1266,"33M4IA01QHLCUJR94FPZ72ZPKK7RXP","05/11/2018@11:42:11","cued_first","Mozilla/5.0 (Windows NT 10.0; Win64; x64) AppleWebKit/537.36 (KHTML, like Gecko) Chrome/70.0.3538.77 Safari/537.36",768,70,68,74,75,"top_right","top_left",2359,"blue","Switch","left",55,"Shape","triangle",100,0,"tri_key",1000,"shape",0,1
"A17FGZ1I5P9RZA",425350,1366,708,1266,"33M4IA01QHLCUJR94FPZ72ZPKK7RXP","05/11/2018@11:42:11","cued_first","Mozilla/5.0 (Windows NT 10.0; Win64; x64) AppleWebKit/537.36 (KHTML, like Gecko) Chrome/70.0.3538.77 Safari/537.36",768,70,68,74,75,"top_right","top_left",836,"blue","Repeat","left",56,"Shape","triangle",1000,0,"tri_key",100,"shape",0,0
"A17FGZ1I5P9RZA",425350,1366,708,1266,"33M4IA01QHLCUJR94FPZ72ZPKK7RXP","05/11/2018@11:42:11","cued_first","Mozilla/5.0 (Windows NT 10.0; Win64; x64) AppleWebKit/537.36 (KHTML, like Gecko) Chrome/70.0.3538.77 Safari/537.36",768,70,68,74,75,"top_right","top_left",1414,"red","Repeat","left",69,"Shape","circle",1000,0,"circle_key",100,"shape",0,0
"A17FGZ1I5P9RZA",425350,1366,708,1266,"33M4IA01QHLCUJR94FPZ72ZPKK7RXP","05/11/2018@11:42:11","cued_first","Mozilla/5.0 (Windows NT 10.0; Win64; x64) AppleWebKit/537.36 (KHTML, like Gecko) Chrome/70.0.3538.77 Safari/537.36",768,70,68,74,75,"top_right","top_left",2996,"red","Switch","right",70,"Color","triangle",100,0,"red_key",1000,"color",0,1
"A17FGZ1I5P9RZA",425350,1366,708,1266,"33M4IA01QHLCUJR94FPZ72ZPKK7RXP","05/11/2018@11:42:11","cued_first","Mozilla/5.0 (Windows NT 10.0; Win64; x64) AppleWebKit/537.36 (KHTML, like Gecko) Chrome/70.0.3538.77 Safari/537.36",768,70,68,74,75,"top_right","top_left",1080,"red","Repeat","right",71,"Color","triangle",1000,0,"red_key",100,"color",0,0
"A17FGZ1I5P9RZA",425350,1366,708,1266,"33M4IA01QHLCUJR94FPZ72ZPKK7RXP","05/11/2018@11:42:11","cued_first","Mozilla/5.0 (Windows NT 10.0; Win64; x64) AppleWebKit/537.36 (KHTML, like Gecko) Chrome/70.0.3538.77 Safari/537.36",768,70,68,74,75,"top_right","top_left",705,"red","Repeat","right",72,"Color","triangle",1000,0,"red_key",100,"color",0,0
"A17FGZ1I5P9RZA",425350,1366,708,1266,"33M4IA01QHLCUJR94FPZ72ZPKK7RXP","05/11/2018@11:42:11","cued_first","Mozilla/5.0 (Windows NT 10.0; Win64; x64) AppleWebKit/537.36 (KHTML, like Gecko) Chrome/70.0.3538.77 Safari/537.36",768,70,68,74,75,"top_right","top_left",2576,"blue","Switch","left",73,"Shape","circle",1000,0,"circle_key",100,"shape",0,1
"A17FGZ1I5P9RZA",425350,1366,708,1266,"33M4IA01QHLCUJR94FPZ72ZPKK7RXP","05/11/2018@11:42:11","cued_first","Mozilla/5.0 (Windows NT 10.0; Win64; x64) AppleWebKit/537.36 (KHTML, like Gecko) Chrome/70.0.3538.77 Safari/537.36",768,70,68,74,75,"top_right","top_left",900,"blue","Repeat","left",74,"Shape","triangle",1000,0,"tri_key",100,"shape",0,0
"A17FGZ1I5P9RZA",425350,1366,708,1266,"33M4IA01QHLCUJR94FPZ72ZPKK7RXP","05/11/2018@11:42:11","cued_first","Mozilla/5.0 (Windows NT 10.0; Win64; x64) AppleWebKit/537.36 (KHTML, like Gecko) Chrome/70.0.3538.77 Safari/537.36",768,70,68,74,75,"top_right","top_left",1247,"red","Repeat","left",77,"Shape","circle",1000,0,"circle_key",100,"shape",0,0
"A17FGZ1I5P9RZA",425350,1366,708,1266,"33M4IA01QHLCUJR94FPZ72ZPKK7RXP","05/11/2018@11:42:11","cued_first","Mozilla/5.0 (Windows NT 10.0; Win64; x64) AppleWebKit/537.36 (KHTML, like Gecko) Chrome/70.0.3538.77 Safari/537.36",768,70,68,74,75,"top_right","top_left",798,"red","Repeat","left",78,"Shape","triangle",1000,0,"tri_key",100,"shape",0,0
"A17FGZ1I5P9RZA",425350,1366,708,1266,"33M4IA01QHLCUJR94FPZ72ZPKK7RXP","05/11/2018@11:42:11","cued_first","Mozilla/5.0 (Windows NT 10.0; Win64; x64) AppleWebKit/537.36 (KHTML, like Gecko) Chrome/70.0.3538.77 Safari/537.36",768,70,68,74,75,"top_right","top_left",952,"blue","Repeat","left",79,"Shape","triangle",1000,0,"tri_key",100,"shape",0,0
"A17FGZ1I5P9RZA",425350,1366,708,1266,"33M4IA01QHLCUJR94FPZ72ZPKK7RXP","05/11/2018@11:42:11","cued_first","Mozilla/5.0 (Windows NT 10.0; Win64; x64) AppleWebKit/537.36 (KHTML, like Gecko) Chrome/70.0.3538.77 Safari/537.36",768,70,68,74,75,"top_right","top_left",796,"blue","Repeat","left",80,"Shape","circle",1000,0,"circle_key",100,"shape",0,0
"A17FGZ1I5P9RZA",425350,1366,708,1266,"33M4IA01QHLCUJR94FPZ72ZPKK7RXP","05/11/2018@11:42:11","cued_first","Mozilla/5.0 (Windows NT 10.0; Win64; x64) AppleWebKit/537.36 (KHTML, like Gecko) Chrome/70.0.3538.77 Safari/537.36",768,70,68,74,75,"top_right","top_left",1867,"blue","Switch","right",83,"Color","triangle",100,0,"blue_key",1000,"color",0,1
"A17FGZ1I5P9RZA",425350,1366,708,1266,"33M4IA01QHLCUJR94FPZ72ZPKK7RXP","05/11/2018@11:42:11","cued_first","Mozilla/5.0 (Windows NT 10.0; Win64; x64) AppleWebKit/537.36 (KHTML, like Gecko) Chrome/70.0.3538.77 Safari/537.36",768,70,68,74,75,"top_right","top_left",895,"blue","Repeat","right",84,"Color","triangle",100,0,"blue_key",1000,"color",0,0
"A17FGZ1I5P9RZA",425350,1366,708,1266,"33M4IA01QHLCUJR94FPZ72ZPKK7RXP","05/11/2018@11:42:11","cued_first","Mozilla/5.0 (Windows NT 10.0; Win64; x64) AppleWebKit/537.36 (KHTML, like Gecko) Chrome/70.0.3538.77 Safari/537.36",768,70,68,74,75,"top_right","top_left",656,"blue","Repeat","right",85,"Color","triangle",1000,0,"blue_key",100,"color",0,0
"A17FGZ1I5P9RZA",425350,1366,708,1266,"33M4IA01QHLCUJR94FPZ72ZPKK7RXP","05/11/2018@11:42:11","cued_first","Mozilla/5.0 (Windows NT 10.0; Win64; x64) AppleWebKit/537.36 (KHTML, like Gecko) Chrome/70.0.3538.77 Safari/537.36",768,70,68,74,75,"top_right","top_left",865,"blue","Repeat","right",86,"Color","triangle",100,0,"blue_key",1000,"color",0,0
"A17FGZ1I5P9RZA",425350,1366,708,1266,"33M4IA01QHLCUJR94FPZ72ZPKK7RXP","05/11/2018@11:42:11","cued_first","Mozilla/5.0 (Windows NT 10.0; Win64; x64) AppleWebKit/537.36 (KHTML, like Gecko) Chrome/70.0.3538.77 Safari/537.36",768,70,68,74,75,"top_right","top_left",799,"red","Repeat","right",87,"Color","circle",100,0,"red_key",1000,"color",0,0
"A17FGZ1I5P9RZA",425350,1366,708,1266,"33M4IA01QHLCUJR94FPZ72ZPKK7RXP","05/11/2018@11:42:11","cued_first","Mozilla/5.0 (Windows NT 10.0; Win64; x64) AppleWebKit/537.36 (KHTML, like Gecko) Chrome/70.0.3538.77 Safari/537.36",768,70,68,74,75,"top_right","top_left",2053,"red","Switch","left",88,"Shape","triangle",1000,0,"tri_key",100,"shape",0,1
"A17FGZ1I5P9RZA",425350,1366,708,1266,"33M4IA01QHLCUJR94FPZ72ZPKK7RXP","05/11/2018@11:42:11","cued_first","Mozilla/5.0 (Windows NT 10.0; Win64; x64) AppleWebKit/537.36 (KHTML, like Gecko) Chrome/70.0.3538.77 Safari/537.36",768,70,68,74,75,"top_right","top_left",901,"blue","Repeat","left",89,"Shape","circle",100,0,"circle_key",1000,"shape",0,0
"A17FGZ1I5P9RZA",425350,1366,708,1266,"33M4IA01QHLCUJR94FPZ72ZPKK7RXP","05/11/2018@11:42:11","cued_first","Mozilla/5.0 (Windows NT 10.0; Win64; x64) AppleWebKit/537.36 (KHTML, like Gecko) Chrome/70.0.3538.77 Safari/537.36",768,70,68,74,75,"top_right","top_left",1030,"blue","Switch","right",90,"Color","triangle",1000,0,"blue_key",100,"color",0,1
"A17FGZ1I5P9RZA",425350,1366,708,1266,"33M4IA01QHLCUJR94FPZ72ZPKK7RXP","05/11/2018@11:42:11","cued_first","Mozilla/5.0 (Windows NT 10.0; Win64; x64) AppleWebKit/537.36 (KHTML, like Gecko) Chrome/70.0.3538.77 Safari/537.36",768,70,68,74,75,"top_right","top_left",816,"blue","Repeat","left",93,"Shape","circle",1000,0,"circle_key",100,"shape",0,0
"A17FGZ1I5P9RZA",425350,1366,708,1266,"33M4IA01QHLCUJR94FPZ72ZPKK7RXP","05/11/2018@11:42:11","cued_first","Mozilla/5.0 (Windows NT 10.0; Win64; x64) AppleWebKit/537.36 (KHTML, like Gecko) Chrome/70.0.3538.77 Safari/537.36",768,70,68,74,75,"top_right","top_left",2639,"red","Switch","right",94,"Color","circle",1000,0,"red_key",100,"color",0,1
"A17FGZ1I5P9RZA",425350,1366,708,1266,"33M4IA01QHLCUJR94FPZ72ZPKK7RXP","05/11/2018@11:42:11","cued_first","Mozilla/5.0 (Windows NT 10.0; Win64; x64) AppleWebKit/537.36 (KHTML, like Gecko) Chrome/70.0.3538.77 Safari/537.36",768,70,68,74,75,"top_right","top_left",715,"red","Repeat","right",95,"Color","triangle",100,0,"red_key",1000,"color",0,0
"A17FGZ1I5P9RZA",425350,1366,708,1266,"33M4IA01QHLCUJR94FPZ72ZPKK7RXP","05/11/2018@11:42:11","cued_first","Mozilla/5.0 (Windows NT 10.0; Win64; x64) AppleWebKit/537.36 (KHTML, like Gecko) Chrome/70.0.3538.77 Safari/537.36",768,70,68,74,75,"top_right","top_left",636,"red","Repeat","right",96,"Color","circle",1000,0,"red_key",100,"color",0,0
"A17FGZ1I5P9RZA",425350,1366,708,1266,"33M4IA01QHLCUJR94FPZ72ZPKK7RXP","05/11/2018@11:42:11","cued_first","Mozilla/5.0 (Windows NT 10.0; Win64; x64) AppleWebKit/537.36 (KHTML, like Gecko) Chrome/70.0.3538.77 Safari/537.36",768,70,68,74,75,"top_right","top_left",1061,"red","Switch","left",97,"Shape","triangle",100,0,"tri_key",1000,"shape",0,1
"A17FGZ1I5P9RZA",425350,1366,708,1266,"33M4IA01QHLCUJR94FPZ72ZPKK7RXP","05/11/2018@11:42:11","cued_first","Mozilla/5.0 (Windows NT 10.0; Win64; x64) AppleWebKit/537.36 (KHTML, like Gecko) Chrome/70.0.3538.77 Safari/537.36",768,70,68,74,75,"top_right","top_left",1887,"red","Switch","right",98,"Color","circle",100,0,"red_key",1000,"color",0,1
"A17FGZ1I5P9RZA",425350,1366,708,1266,"33M4IA01QHLCUJR94FPZ72ZPKK7RXP","05/11/2018@11:42:11","cued_first","Mozilla/5.0 (Windows NT 10.0; Win64; x64) AppleWebKit/537.36 (KHTML, like Gecko) Chrome/70.0.3538.77 Safari/537.36",768,70,68,74,75,"top_right","top_left",1783,"red","Switch","left",99,"Shape","triangle",1000,0,"tri_key",100,"shape",0,1
"A17FGZ1I5P9RZA",425350,1366,708,1266,"33M4IA01QHLCUJR94FPZ72ZPKK7RXP","05/11/2018@11:42:11","cued_first","Mozilla/5.0 (Windows NT 10.0; Win64; x64) AppleWebKit/537.36 (KHTML, like Gecko) Chrome/70.0.3538.77 Safari/537.36",768,70,68,74,75,"top_right","top_left",1062,"red","Repeat","left",100,"Shape","triangle",1000,0,"tri_key",100,"shape",0,0
"A17FGZ1I5P9RZA",425350,1366,708,1266,"33M4IA01QHLCUJR94FPZ72ZPKK7RXP","05/11/2018@11:42:11","cued_first","Mozilla/5.0 (Windows NT 10.0; Win64; x64) AppleWebKit/537.36 (KHTML, like Gecko) Chrome/70.0.3538.77 Safari/537.36",768,70,68,74,75,"top_right","top_left",1820,"red","Switch","right",101,"Color","circle",1000,0,"red_key",100,"color",0,1
"A17FGZ1I5P9RZA",425350,1366,708,1266,"33M4IA01QHLCUJR94FPZ72ZPKK7RXP","05/11/2018@11:42:11","cued_first","Mozilla/5.0 (Windows NT 10.0; Win64; x64) AppleWebKit/537.36 (KHTML, like Gecko) Chrome/70.0.3538.77 Safari/537.36",768,70,68,74,75,"top_right","top_left",1874,"red","Switch","left",102,"Shape","triangle",1000,0,"tri_key",100,"shape",0,1
"A17FGZ1I5P9RZA",425350,1366,708,1266,"33M4IA01QHLCUJR94FPZ72ZPKK7RXP","05/11/2018@11:42:11","cued_first","Mozilla/5.0 (Windows NT 10.0; Win64; x64) AppleWebKit/537.36 (KHTML, like Gecko) Chrome/70.0.3538.77 Safari/537.36",768,70,68,74,75,"top_right","top_left",1913,"blue","Switch","right",103,"Color","circle",1000,0,"blue_key",100,"color",0,1
"A17FGZ1I5P9RZA",425350,1366,708,1266,"33M4IA01QHLCUJR94FPZ72ZPKK7RXP","05/11/2018@11:42:11","cued_first","Mozilla/5.0 (Windows NT 10.0; Win64; x64) AppleWebKit/537.36 (KHTML, like Gecko) Chrome/70.0.3538.77 Safari/537.36",768,70,68,74,75,"top_right","top_left",713,"blue","Repeat","right",104,"Color","circle",100,0,"blue_key",1000,"color",0,0
"A17FGZ1I5P9RZA",425350,1366,708,1266,"33M4IA01QHLCUJR94FPZ72ZPKK7RXP","05/11/2018@11:42:11","cued_first","Mozilla/5.0 (Windows NT 10.0; Win64; x64) AppleWebKit/537.36 (KHTML, like Gecko) Chrome/70.0.3538.77 Safari/537.36",768,70,68,74,75,"top_right","top_left",811,"red","Repeat","right",105,"Color","circle",100,0,"red_key",1000,"color",0,0
"A17FGZ1I5P9RZA",425350,1366,708,1266,"33M4IA01QHLCUJR94FPZ72ZPKK7RXP","05/11/2018@11:42:11","cued_first","Mozilla/5.0 (Windows NT 10.0; Win64; x64) AppleWebKit/537.36 (KHTML, like Gecko) Chrome/70.0.3538.77 Safari/537.36",768,70,68,74,75,"top_right","top_left",830,"blue","Repeat","right",106,"Color","circle",100,0,"blue_key",1000,"color",0,0
"A17FGZ1I5P9RZA",425350,1366,708,1266,"33M4IA01QHLCUJR94FPZ72ZPKK7RXP","05/11/2018@11:42:11","cued_first","Mozilla/5.0 (Windows NT 10.0; Win64; x64) AppleWebKit/537.36 (KHTML, like Gecko) Chrome/70.0.3538.77 Safari/537.36",768,70,68,74,75,"top_right","top_left",2326,"red","Switch","left",107,"Shape","circle",1000,0,"circle_key",100,"shape",0,1
"A17FGZ1I5P9RZA",425350,1366,708,1266,"33M4IA01QHLCUJR94FPZ72ZPKK7RXP","05/11/2018@11:42:11","cued_first","Mozilla/5.0 (Windows NT 10.0; Win64; x64) AppleWebKit/537.36 (KHTML, like Gecko) Chrome/70.0.3538.77 Safari/537.36",768,70,68,74,75,"top_right","top_left",955,"red","Repeat","left",108,"Shape","circle",1000,0,"circle_key",100,"shape",0,0
"A17FGZ1I5P9RZA",425350,1366,708,1266,"33M4IA01QHLCUJR94FPZ72ZPKK7RXP","05/11/2018@11:42:11","cued_first","Mozilla/5.0 (Windows NT 10.0; Win64; x64) AppleWebKit/537.36 (KHTML, like Gecko) Chrome/70.0.3538.77 Safari/537.36",768,70,68,74,75,"top_right","top_left",1542,"red","Switch","right",109,"Color","triangle",100,0,"red_key",1000,"color",0,1
"A17FGZ1I5P9RZA",425350,1366,708,1266,"33M4IA01QHLCUJR94FPZ72ZPKK7RXP","05/11/2018@11:42:11","cued_first","Mozilla/5.0 (Windows NT 10.0; Win64; x64) AppleWebKit/537.36 (KHTML, like Gecko) Chrome/70.0.3538.77 Safari/537.36",768,70,68,74,75,"top_right","top_left",2584,"red","Switch","left",110,"Shape","circle",1000,0,"circle_key",100,"shape",0,1
"A17FGZ1I5P9RZA",425350,1366,708,1266,"33M4IA01QHLCUJR94FPZ72ZPKK7RXP","05/11/2018@11:42:11","cued_first","Mozilla/5.0 (Windows NT 10.0; Win64; x64) AppleWebKit/537.36 (KHTML, like Gecko) Chrome/70.0.3538.77 Safari/537.36",768,70,68,74,75,"top_right","top_left",671,"red","Repeat","left",111,"Shape","triangle",100,0,"tri_key",1000,"shape",0,0
"A17FGZ1I5P9RZA",425350,1366,708,1266,"33M4IA01QHLCUJR94FPZ72ZPKK7RXP","05/11/2018@11:42:11","cued_first","Mozilla/5.0 (Windows NT 10.0; Win64; x64) AppleWebKit/537.36 (KHTML, like Gecko) Chrome/70.0.3538.77 Safari/537.36",768,70,68,74,75,"top_right","top_left",2819,"red","Switch","right",112,"Color","circle",1000,0,"red_key",100,"color",0,1
"A17FGZ1I5P9RZA",425350,1366,708,1266,"33M4IA01QHLCUJR94FPZ72ZPKK7RXP","05/11/2018@11:42:11","cued_first","Mozilla/5.0 (Windows NT 10.0; Win64; x64) AppleWebKit/537.36 (KHTML, like Gecko) Chrome/70.0.3538.77 Safari/537.36",768,70,68,74,75,"top_right","top_left",1008,"red","Repeat","right",113,"Color","triangle",100,0,"red_key",1000,"color",0,0
"A17FGZ1I5P9RZA",425350,1366,708,1266,"33M4IA01QHLCUJR94FPZ72ZPKK7RXP","05/11/2018@11:42:11","cued_first","Mozilla/5.0 (Windows NT 10.0; Win64; x64) AppleWebKit/537.36 (KHTML, like Gecko) Chrome/70.0.3538.77 Safari/537.36",768,70,68,74,75,"top_right","top_left",1585,"red","Switch","left",114,"Shape","triangle",1000,0,"tri_key",100,"shape",0,1
"A17FGZ1I5P9RZA",425350,1366,708,1266,"33M4IA01QHLCUJR94FPZ72ZPKK7RXP","05/11/2018@11:42:11","cued_first","Mozilla/5.0 (Windows NT 10.0; Win64; x64) AppleWebKit/537.36 (KHTML, like Gecko) Chrome/70.0.3538.77 Safari/537.36",768,70,68,74,75,"top_right","top_left",1824,"blue","Switch","right",115,"Color","circle",1000,0,"blue_key",100,"color",0,1
"A17FGZ1I5P9RZA",425350,1366,708,1266,"33M4IA01QHLCUJR94FPZ72ZPKK7RXP","05/11/2018@11:42:11","cued_first","Mozilla/5.0 (Windows NT 10.0; Win64; x64) AppleWebKit/537.36 (KHTML, like Gecko) Chrome/70.0.3538.77 Safari/537.36",768,70,68,74,75,"top_right","top_left",924,"blue","Repeat","right",116,"Color","triangle",1000,0,"blue_key",100,"color",0,0
"A17FGZ1I5P9RZA",425350,1366,708,1266,"33M4IA01QHLCUJR94FPZ72ZPKK7RXP","05/11/2018@11:42:11","cued_first","Mozilla/5.0 (Windows NT 10.0; Win64; x64) AppleWebKit/537.36 (KHTML, like Gecko) Chrome/70.0.3538.77 Safari/537.36",768,70,68,74,75,"top_right","top_left",858,"blue","Repeat","right",117,"Color","triangle",100,0,"blue_key",1000,"color",0,0
"A17FGZ1I5P9RZA",425350,1366,708,1266,"33M4IA01QHLCUJR94FPZ72ZPKK7RXP","05/11/2018@11:42:11","cued_first","Mozilla/5.0 (Windows NT 10.0; Win64; x64) AppleWebKit/537.36 (KHTML, like Gecko) Chrome/70.0.3538.77 Safari/537.36",768,70,68,74,75,"top_right","top_left",1282,"red","Switch","left",118,"Shape","triangle",100,0,"tri_key",1000,"shape",0,1
"A17FGZ1I5P9RZA",425350,1366,708,1266,"33M4IA01QHLCUJR94FPZ72ZPKK7RXP","05/11/2018@11:42:11","cued_first","Mozilla/5.0 (Windows NT 10.0; Win64; x64) AppleWebKit/537.36 (KHTML, like Gecko) Chrome/70.0.3538.77 Safari/537.36",768,70,68,74,75,"top_right","top_left",1149,"blue","Switch","right",119,"Color","circle",1000,0,"blue_key",100,"color",0,1
"A17FGZ1I5P9RZA",425350,1366,708,1266,"33M4IA01QHLCUJR94FPZ72ZPKK7RXP","05/11/2018@11:42:11","cued_first","Mozilla/5.0 (Windows NT 10.0; Win64; x64) AppleWebKit/537.36 (KHTML, like Gecko) Chrome/70.0.3538.77 Safari/537.36",768,70,68,74,75,"top_right","top_left",722,"blue","Repeat","right",120,"Color","circle",1000,0,"blue_key",100,"color",0,0
"A17FGZ1I5P9RZA",425350,1366,708,1266,"33M4IA01QHLCUJR94FPZ72ZPKK7RXP","05/11/2018@11:42:11","cued_first","Mozilla/5.0 (Windows NT 10.0; Win64; x64) AppleWebKit/537.36 (KHTML, like Gecko) Chrome/70.0.3538.77 Safari/537.36",768,70,68,74,75,"top_right","top_left",1152,"red","Repeat","right",121,"Color","circle",1000,0,"red_key",100,"color",0,0
"A17FGZ1I5P9RZA",425350,1366,708,1266,"33M4IA01QHLCUJR94FPZ72ZPKK7RXP","05/11/2018@11:42:11","cued_first","Mozilla/5.0 (Windows NT 10.0; Win64; x64) AppleWebKit/537.36 (KHTML, like Gecko) Chrome/70.0.3538.77 Safari/537.36",768,70,68,74,75,"top_right","top_left",588,"blue","Repeat","right",122,"Color","circle",100,0,"blue_key",1000,"color",0,0
"A17FGZ1I5P9RZA",425350,1366,708,1266,"33M4IA01QHLCUJR94FPZ72ZPKK7RXP","05/11/2018@11:42:11","cued_first","Mozilla/5.0 (Windows NT 10.0; Win64; x64) AppleWebKit/537.36 (KHTML, like Gecko) Chrome/70.0.3538.77 Safari/537.36",768,70,68,74,75,"top_right","top_left",1422,"red","Switch","left",123,"Shape","circle",100,0,"circle_key",1000,"shape",0,1
"A17FGZ1I5P9RZA",425350,1366,708,1266,"33M4IA01QHLCUJR94FPZ72ZPKK7RXP","05/11/2018@11:42:11","cued_first","Mozilla/5.0 (Windows NT 10.0; Win64; x64) AppleWebKit/537.36 (KHTML, like Gecko) Chrome/70.0.3538.77 Safari/537.36",768,70,68,74,75,"top_right","top_left",1405,"blue","Switch","right",124,"Color","circle",1000,0,"blue_key",100,"color",0,1
"A17FGZ1I5P9RZA",425350,1366,708,1266,"33M4IA01QHLCUJR94FPZ72ZPKK7RXP","05/11/2018@11:42:11","cued_first","Mozilla/5.0 (Windows NT 10.0; Win64; x64) AppleWebKit/537.36 (KHTML, like Gecko) Chrome/70.0.3538.77 Safari/537.36",768,70,68,74,75,"top_right","top_left",2518,"red","Switch","left",125,"Shape","triangle",1000,0,"tri_key",100,"shape",0,1
"A17FGZ1I5P9RZA",425350,1366,708,1266,"33M4IA01QHLCUJR94FPZ72ZPKK7RXP","05/11/2018@11:42:11","cued_first","Mozilla/5.0 (Windows NT 10.0; Win64; x64) AppleWebKit/537.36 (KHTML, like Gecko) Chrome/70.0.3538.77 Safari/537.36",768,70,68,74,75,"top_right","top_left",1471,"blue","Switch","right",128,"Color","triangle",100,0,"blue_key",1000,"color",0,1
"A17FGZ1I5P9RZA",425350,1366,708,1266,"33M4IA01QHLCUJR94FPZ72ZPKK7RXP","05/11/2018@11:42:11","cued_first","Mozilla/5.0 (Windows NT 10.0; Win64; x64) AppleWebKit/537.36 (KHTML, like Gecko) Chrome/70.0.3538.77 Safari/537.36",768,70,68,74,75,"top_right","top_left",779,"blue","Repeat","right",129,"Color","circle",100,0,"blue_key",1000,"color",0,0
"A17FGZ1I5P9RZA",425350,1366,708,1266,"33M4IA01QHLCUJR94FPZ72ZPKK7RXP","05/11/2018@11:42:11","cued_first","Mozilla/5.0 (Windows NT 10.0; Win64; x64) AppleWebKit/537.36 (KHTML, like Gecko) Chrome/70.0.3538.77 Safari/537.36",768,70,68,74,75,"top_right","top_left",1576,"red","Switch","left",130,"Shape","triangle",100,0,"tri_key",1000,"shape",0,1
"A17FGZ1I5P9RZA",425350,1366,708,1266,"33M4IA01QHLCUJR94FPZ72ZPKK7RXP","05/11/2018@11:42:11","cued_first","Mozilla/5.0 (Windows NT 10.0; Win64; x64) AppleWebKit/537.36 (KHTML, like Gecko) Chrome/70.0.3538.77 Safari/537.36",768,70,68,74,75,"top_right","top_left",1187,"red","Repeat","left",131,"Shape","circle",100,0,"circle_key",1000,"shape",0,0
"A17FGZ1I5P9RZA",425350,1366,708,1266,"33M4IA01QHLCUJR94FPZ72ZPKK7RXP","05/11/2018@11:42:11","cued_first","Mozilla/5.0 (Windows NT 10.0; Win64; x64) AppleWebKit/537.36 (KHTML, like Gecko) Chrome/70.0.3538.77 Safari/537.36",768,70,68,74,75,"top_right","top_left",2182,"red","Switch","right",132,"Color","triangle",1000,0,"red_key",100,"color",0,1
"A17FGZ1I5P9RZA",425350,1366,708,1266,"33M4IA01QHLCUJR94FPZ72ZPKK7RXP","05/11/2018@11:42:11","cued_first","Mozilla/5.0 (Windows NT 10.0; Win64; x64) AppleWebKit/537.36 (KHTML, like Gecko) Chrome/70.0.3538.77 Safari/537.36",768,70,68,74,75,"top_right","top_left",874,"red","Repeat","right",133,"Color","circle",1000,0,"red_key",100,"color",0,0
"A17FGZ1I5P9RZA",425350,1366,708,1266,"33M4IA01QHLCUJR94FPZ72ZPKK7RXP","05/11/2018@11:42:11","cued_first","Mozilla/5.0 (Windows NT 10.0; Win64; x64) AppleWebKit/537.36 (KHTML, like Gecko) Chrome/70.0.3538.77 Safari/537.36",768,70,68,74,75,"top_right","top_left",1332,"blue","Switch","left",134,"Shape","triangle",100,0,"tri_key",1000,"shape",0,1
"A17FGZ1I5P9RZA",425350,1366,708,1266,"33M4IA01QHLCUJR94FPZ72ZPKK7RXP","05/11/2018@11:42:11","cued_first","Mozilla/5.0 (Windows NT 10.0; Win64; x64) AppleWebKit/537.36 (KHTML, like Gecko) Chrome/70.0.3538.77 Safari/537.36",768,70,68,74,75,"top_right","top_left",1003,"red","Switch","right",135,"Color","triangle",100,0,"red_key",1000,"color",0,1
"A17FGZ1I5P9RZA",425350,1366,708,1266,"33M4IA01QHLCUJR94FPZ72ZPKK7RXP","05/11/2018@11:42:11","cued_first","Mozilla/5.0 (Windows NT 10.0; Win64; x64) AppleWebKit/537.36 (KHTML, like Gecko) Chrome/70.0.3538.77 Safari/537.36",768,70,68,74,75,"top_right","top_left",1054,"blue","Switch","left",136,"Shape","triangle",100,0,"tri_key",1000,"shape",0,1
"A17FGZ1I5P9RZA",425350,1366,708,1266,"33M4IA01QHLCUJR94FPZ72ZPKK7RXP","05/11/2018@11:42:11","cued_first","Mozilla/5.0 (Windows NT 10.0; Win64; x64) AppleWebKit/537.36 (KHTML, like Gecko) Chrome/70.0.3538.77 Safari/537.36",768,70,68,74,75,"top_right","top_left",878,"red","Repeat","left",137,"Shape","triangle",1000,0,"tri_key",100,"shape",0,0
"A17FGZ1I5P9RZA",425350,1366,708,1266,"33M4IA01QHLCUJR94FPZ72ZPKK7RXP","05/11/2018@11:42:11","cued_first","Mozilla/5.0 (Windows NT 10.0; Win64; x64) AppleWebKit/537.36 (KHTML, like Gecko) Chrome/70.0.3538.77 Safari/537.36",768,70,68,74,75,"top_right","top_left",1021,"red","Switch","right",138,"Color","circle",100,0,"red_key",1000,"color",0,1
"A17FGZ1I5P9RZA",425350,1366,708,1266,"33M4IA01QHLCUJR94FPZ72ZPKK7RXP","05/11/2018@11:42:11","cued_first","Mozilla/5.0 (Windows NT 10.0; Win64; x64) AppleWebKit/537.36 (KHTML, like Gecko) Chrome/70.0.3538.77 Safari/537.36",768,70,68,74,75,"top_right","top_left",1622,"blue","Switch","left",139,"Shape","triangle",1000,0,"tri_key",100,"shape",0,1
"A17FGZ1I5P9RZA",425350,1366,708,1266,"33M4IA01QHLCUJR94FPZ72ZPKK7RXP","05/11/2018@11:42:11","cued_first","Mozilla/5.0 (Windows NT 10.0; Win64; x64) AppleWebKit/537.36 (KHTML, like Gecko) Chrome/70.0.3538.77 Safari/537.36",768,70,68,74,75,"top_right","top_left",1543,"red","Switch","right",140,"Color","triangle",100,0,"red_key",1000,"color",0,1
"A17FGZ1I5P9RZA",425350,1366,708,1266,"33M4IA01QHLCUJR94FPZ72ZPKK7RXP","05/11/2018@11:42:11","cued_first","Mozilla/5.0 (Windows NT 10.0; Win64; x64) AppleWebKit/537.36 (KHTML, like Gecko) Chrome/70.0.3538.77 Safari/537.36",768,70,68,74,75,"top_right","top_left",1047,"red","Repeat","right",141,"Color","circle",1000,0,"red_key",100,"color",0,0
"A17FGZ1I5P9RZA",425350,1366,708,1266,"33M4IA01QHLCUJR94FPZ72ZPKK7RXP","05/11/2018@11:42:11","cued_first","Mozilla/5.0 (Windows NT 10.0; Win64; x64) AppleWebKit/537.36 (KHTML, like Gecko) Chrome/70.0.3538.77 Safari/537.36",768,70,68,74,75,"top_right","top_left",1251,"red","Repeat","right",142,"Color","circle",100,0,"red_key",1000,"color",0,0
"A17FGZ1I5P9RZA",425350,1366,708,1266,"33M4IA01QHLCUJR94FPZ72ZPKK7RXP","05/11/2018@11:42:11","cued_first","Mozilla/5.0 (Windows NT 10.0; Win64; x64) AppleWebKit/537.36 (KHTML, like Gecko) Chrome/70.0.3538.77 Safari/537.36",768,70,68,74,75,"top_right","top_left",1562,"red","Repeat","right",143,"Color","triangle",1000,0,"red_key",100,"color",0,0
"A17FGZ1I5P9RZA",425350,1366,708,1266,"33M4IA01QHLCUJR94FPZ72ZPKK7RXP","05/11/2018@11:42:11","cued_first","Mozilla/5.0 (Windows NT 10.0; Win64; x64) AppleWebKit/537.36 (KHTML, like Gecko) Chrome/70.0.3538.77 Safari/537.36",768,70,68,74,75,"top_right","top_left",869,"red","Repeat","right",144,"Color","circle",1000,0,"red_key",100,"color",0,0
"A17FGZ1I5P9RZA",425350,1366,708,1266,"33M4IA01QHLCUJR94FPZ72ZPKK7RXP","05/11/2018@11:42:11","cued_first","Mozilla/5.0 (Windows NT 10.0; Win64; x64) AppleWebKit/537.36 (KHTML, like Gecko) Chrome/70.0.3538.77 Safari/537.36",768,70,68,74,75,"top_right","top_left",1405,"red","Switch","left",145,"Shape","triangle",1000,0,"tri_key",100,"shape",0,1
"A17FGZ1I5P9RZA",425350,1366,708,1266,"33M4IA01QHLCUJR94FPZ72ZPKK7RXP","05/11/2018@11:42:11","cued_first","Mozilla/5.0 (Windows NT 10.0; Win64; x64) AppleWebKit/537.36 (KHTML, like Gecko) Chrome/70.0.3538.77 Safari/537.36",768,70,68,74,75,"top_right","top_left",1734,"blue","Repeat","left",146,"Shape","circle",1000,0,"circle_key",100,"shape",0,0
"A17FGZ1I5P9RZA",425350,1366,708,1266,"33M4IA01QHLCUJR94FPZ72ZPKK7RXP","05/11/2018@11:42:11","cued_first","Mozilla/5.0 (Windows NT 10.0; Win64; x64) AppleWebKit/537.36 (KHTML, like Gecko) Chrome/70.0.3538.77 Safari/537.36",768,70,68,74,75,"top_right","top_left",880,"red","Switch","right",147,"Color","circle",100,0,"red_key",1000,"color",0,1
"A17FGZ1I5P9RZA",425350,1366,708,1266,"33M4IA01QHLCUJR94FPZ72ZPKK7RXP","05/11/2018@11:42:11","cued_first","Mozilla/5.0 (Windows NT 10.0; Win64; x64) AppleWebKit/537.36 (KHTML, like Gecko) Chrome/70.0.3538.77 Safari/537.36",768,70,68,74,75,"top_right","top_left",2346,"blue","Switch","left",148,"Shape","circle",1000,0,"circle_key",100,"shape",0,1
"A17FGZ1I5P9RZA",425350,1366,708,1266,"33M4IA01QHLCUJR94FPZ72ZPKK7RXP","05/11/2018@11:42:11","cued_first","Mozilla/5.0 (Windows NT 10.0; Win64; x64) AppleWebKit/537.36 (KHTML, like Gecko) Chrome/70.0.3538.77 Safari/537.36",768,70,68,74,75,"top_right","top_left",868,"blue","Repeat","left",149,"Shape","circle",1000,0,"circle_key",100,"shape",0,0
"A17FGZ1I5P9RZA",425350,1366,708,1266,"33M4IA01QHLCUJR94FPZ72ZPKK7RXP","05/11/2018@11:42:11","cued_first","Mozilla/5.0 (Windows NT 10.0; Win64; x64) AppleWebKit/537.36 (KHTML, like Gecko) Chrome/70.0.3538.77 Safari/537.36",768,70,68,74,75,"top_right","top_left",1096,"blue","Repeat","left",150,"Shape","triangle",1000,0,"tri_key",100,"shape",0,0
"A17FGZ1I5P9RZA",425350,1366,708,1266,"33M4IA01QHLCUJR94FPZ72ZPKK7RXP","05/11/2018@11:42:11","cued_first","Mozilla/5.0 (Windows NT 10.0; Win64; x64) AppleWebKit/537.36 (KHTML, like Gecko) Chrome/70.0.3538.77 Safari/537.36",768,70,68,74,75,"top_right","top_left",1965,"red","Repeat","left",151,"Shape","triangle",100,0,"tri_key",1000,"shape",0,0
"A17FGZ1I5P9RZA",425350,1366,708,1266,"33M4IA01QHLCUJR94FPZ72ZPKK7RXP","05/11/2018@11:42:11","cued_first","Mozilla/5.0 (Windows NT 10.0; Win64; x64) AppleWebKit/537.36 (KHTML, like Gecko) Chrome/70.0.3538.77 Safari/537.36",768,70,68,74,75,"top_right","top_left",998,"blue","Repeat","left",152,"Shape","circle",100,0,"circle_key",1000,"shape",0,0
"A17FGZ1I5P9RZA",425350,1366,708,1266,"33M4IA01QHLCUJR94FPZ72ZPKK7RXP","05/11/2018@11:42:11","cued_first","Mozilla/5.0 (Windows NT 10.0; Win64; x64) AppleWebKit/537.36 (KHTML, like Gecko) Chrome/70.0.3538.77 Safari/537.36",768,70,68,74,75,"top_right","top_left",1193,"blue","Switch","right",153,"Color","circle",100,0,"blue_key",1000,"color",0,1
"A17FGZ1I5P9RZA",425350,1366,708,1266,"33M4IA01QHLCUJR94FPZ72ZPKK7RXP","05/11/2018@11:42:11","cued_first","Mozilla/5.0 (Windows NT 10.0; Win64; x64) AppleWebKit/537.36 (KHTML, like Gecko) Chrome/70.0.3538.77 Safari/537.36",768,70,68,74,75,"top_right","top_left",1626,"blue","Switch","left",154,"Shape","triangle",1000,0,"tri_key",100,"shape",0,1
"A17FGZ1I5P9RZA",425350,1366,708,1266,"33M4IA01QHLCUJR94FPZ72ZPKK7RXP","05/11/2018@11:42:11","cued_first","Mozilla/5.0 (Windows NT 10.0; Win64; x64) AppleWebKit/537.36 (KHTML, like Gecko) Chrome/70.0.3538.77 Safari/537.36",768,70,68,74,75,"top_right","top_left",916,"blue","Switch","right",155,"Color","triangle",100,0,"blue_key",1000,"color",0,1
"A17FGZ1I5P9RZA",425350,1366,708,1266,"33M4IA01QHLCUJR94FPZ72ZPKK7RXP","05/11/2018@11:42:11","cued_first","Mozilla/5.0 (Windows NT 10.0; Win64; x64) AppleWebKit/537.36 (KHTML, like Gecko) Chrome/70.0.3538.77 Safari/537.36",768,70,68,74,75,"top_right","top_left",841,"blue","Repeat","right",156,"Color","circle",100,0,"blue_key",1000,"color",0,0
"A17FGZ1I5P9RZA",425350,1366,708,1266,"33M4IA01QHLCUJR94FPZ72ZPKK7RXP","05/11/2018@11:42:11","cued_first","Mozilla/5.0 (Windows NT 10.0; Win64; x64) AppleWebKit/537.36 (KHTML, like Gecko) Chrome/70.0.3538.77 Safari/537.36",768,70,68,74,75,"top_right","top_left",800,"blue","Switch","left",157,"Shape","triangle",1000,0,"tri_key",100,"shape",0,1
"A17FGZ1I5P9RZA",425350,1366,708,1266,"33M4IA01QHLCUJR94FPZ72ZPKK7RXP","05/11/2018@11:42:11","cued_first","Mozilla/5.0 (Windows NT 10.0; Win64; x64) AppleWebKit/537.36 (KHTML, like Gecko) Chrome/70.0.3538.77 Safari/537.36",768,70,68,74,75,"top_right","top_left",1001,"red","Repeat","left",158,"Shape","circle",1000,0,"circle_key",100,"shape",0,0
"A17FGZ1I5P9RZA",425350,1366,708,1266,"33M4IA01QHLCUJR94FPZ72ZPKK7RXP","05/11/2018@11:42:11","cued_first","Mozilla/5.0 (Windows NT 10.0; Win64; x64) AppleWebKit/537.36 (KHTML, like Gecko) Chrome/70.0.3538.77 Safari/537.36",768,70,68,74,75,"top_right","top_left",899,"red","Repeat","left",159,"Shape","circle",1000,0,"circle_key",100,"shape",0,0
"A17FGZ1I5P9RZA",425350,1366,708,1266,"33M4IA01QHLCUJR94FPZ72ZPKK7RXP","05/11/2018@11:42:11","cued_first","Mozilla/5.0 (Windows NT 10.0; Win64; x64) AppleWebKit/537.36 (KHTML, like Gecko) Chrome/70.0.3538.77 Safari/537.36",768,70,68,74,75,"top_right","top_left",899,"blue","Switch","right",160,"Color","circle",100,0,"blue_key",1000,"color",0,1
"A1B860YTPA8W3N",1138177,1280,708,1180,"34YB12FSQZ8ABHJRAXTEXH5KB83GMR","05/11/2018@17:56:13","rvts_first","Mozilla/5.0 (Windows NT 10.0; Win64; x64) AppleWebKit/537.36 (KHTML, like Gecko) Chrome/70.0.3538.77 Safari/537.36",720,70,68,75,74,"top_right","top_left",903,"blue","Repeat","left",2,"Shape","circle",1000,0,"circle_key",100,"shape",0,0
"A1B860YTPA8W3N",1138177,1280,708,1180,"34YB12FSQZ8ABHJRAXTEXH5KB83GMR","05/11/2018@17:56:13","rvts_first","Mozilla/5.0 (Windows NT 10.0; Win64; x64) AppleWebKit/537.36 (KHTML, like Gecko) Chrome/70.0.3538.77 Safari/537.36",720,70,68,75,74,"top_right","top_left",1113,"red","Repeat","left",6,"Shape","triangle",1000,0,"tri_key",100,"shape",0,0
"A1B860YTPA8W3N",1138177,1280,708,1180,"34YB12FSQZ8ABHJRAXTEXH5KB83GMR","05/11/2018@17:56:13","rvts_first","Mozilla/5.0 (Windows NT 10.0; Win64; x64) AppleWebKit/537.36 (KHTML, like Gecko) Chrome/70.0.3538.77 Safari/537.36",720,70,68,75,74,"top_right","top_left",2301,"blue","Repeat","left",7,"Shape","triangle",1000,0,"tri_key",100,"shape",0,0
"A1B860YTPA8W3N",1138177,1280,708,1180,"34YB12FSQZ8ABHJRAXTEXH5KB83GMR","05/11/2018@17:56:13","rvts_first","Mozilla/5.0 (Windows NT 10.0; Win64; x64) AppleWebKit/537.36 (KHTML, like Gecko) Chrome/70.0.3538.77 Safari/537.36",720,70,68,75,74,"top_right","top_left",1816,"blue","Switch","right",8,"Color","circle",100,0,"blue_key",1000,"color",0,1
"A1B860YTPA8W3N",1138177,1280,708,1180,"34YB12FSQZ8ABHJRAXTEXH5KB83GMR","05/11/2018@17:56:13","rvts_first","Mozilla/5.0 (Windows NT 10.0; Win64; x64) AppleWebKit/537.36 (KHTML, like Gecko) Chrome/70.0.3538.77 Safari/537.36",720,70,68,75,74,"top_right","top_left",3954,"blue","Switch","left",11,"Shape","circle",1000,0,"circle_key",100,"shape",0,1
"A1B860YTPA8W3N",1138177,1280,708,1180,"34YB12FSQZ8ABHJRAXTEXH5KB83GMR","05/11/2018@17:56:13","rvts_first","Mozilla/5.0 (Windows NT 10.0; Win64; x64) AppleWebKit/537.36 (KHTML, like Gecko) Chrome/70.0.3538.77 Safari/537.36",720,70,68,75,74,"top_right","top_left",1109,"blue","Repeat","left",12,"Shape","triangle",100,0,"tri_key",1000,"shape",0,0
"A1B860YTPA8W3N",1138177,1280,708,1180,"34YB12FSQZ8ABHJRAXTEXH5KB83GMR","05/11/2018@17:56:13","rvts_first","Mozilla/5.0 (Windows NT 10.0; Win64; x64) AppleWebKit/537.36 (KHTML, like Gecko) Chrome/70.0.3538.77 Safari/537.36",720,70,68,75,74,"top_right","top_left",778,"blue","Repeat","left",13,"Shape","circle",100,0,"circle_key",1000,"shape",0,0
"A1B860YTPA8W3N",1138177,1280,708,1180,"34YB12FSQZ8ABHJRAXTEXH5KB83GMR","05/11/2018@17:56:13","rvts_first","Mozilla/5.0 (Windows NT 10.0; Win64; x64) AppleWebKit/537.36 (KHTML, like Gecko) Chrome/70.0.3538.77 Safari/537.36",720,70,68,75,74,"top_right","top_left",662,"red","Repeat","left",14,"Shape","circle",100,0,"circle_key",1000,"shape",0,0
"A1B860YTPA8W3N",1138177,1280,708,1180,"34YB12FSQZ8ABHJRAXTEXH5KB83GMR","05/11/2018@17:56:13","rvts_first","Mozilla/5.0 (Windows NT 10.0; Win64; x64) AppleWebKit/537.36 (KHTML, like Gecko) Chrome/70.0.3538.77 Safari/537.36",720,70,68,75,74,"top_right","top_left",1009,"blue","Repeat","left",15,"Shape","triangle",100,0,"tri_key",1000,"shape",0,0
"A1B860YTPA8W3N",1138177,1280,708,1180,"34YB12FSQZ8ABHJRAXTEXH5KB83GMR","05/11/2018@17:56:13","rvts_first","Mozilla/5.0 (Windows NT 10.0; Win64; x64) AppleWebKit/537.36 (KHTML, like Gecko) Chrome/70.0.3538.77 Safari/537.36",720,70,68,75,74,"top_right","top_left",1355,"blue","Switch","right",16,"Color","triangle",100,0,"blue_key",1000,"color",0,1
"A1B860YTPA8W3N",1138177,1280,708,1180,"34YB12FSQZ8ABHJRAXTEXH5KB83GMR","05/11/2018@17:56:13","rvts_first","Mozilla/5.0 (Windows NT 10.0; Win64; x64) AppleWebKit/537.36 (KHTML, like Gecko) Chrome/70.0.3538.77 Safari/537.36",720,70,68,75,74,"top_right","top_left",1263,"red","Repeat","right",17,"Color","circle",1000,0,"red_key",100,"color",0,0
"A1B860YTPA8W3N",1138177,1280,708,1180,"34YB12FSQZ8ABHJRAXTEXH5KB83GMR","05/11/2018@17:56:13","rvts_first","Mozilla/5.0 (Windows NT 10.0; Win64; x64) AppleWebKit/537.36 (KHTML, like Gecko) Chrome/70.0.3538.77 Safari/537.36",720,70,68,75,74,"top_right","top_left",2409,"red","Switch","right",19,"Color","triangle",100,0,"red_key",1000,"color",0,1
"A1B860YTPA8W3N",1138177,1280,708,1180,"34YB12FSQZ8ABHJRAXTEXH5KB83GMR","05/11/2018@17:56:13","rvts_first","Mozilla/5.0 (Windows NT 10.0; Win64; x64) AppleWebKit/537.36 (KHTML, like Gecko) Chrome/70.0.3538.77 Safari/537.36",720,70,68,75,74,"top_right","top_left",1175,"red","Repeat","right",20,"Color","circle",1000,0,"red_key",100,"color",0,0
"A1B860YTPA8W3N",1138177,1280,708,1180,"34YB12FSQZ8ABHJRAXTEXH5KB83GMR","05/11/2018@17:56:13","rvts_first","Mozilla/5.0 (Windows NT 10.0; Win64; x64) AppleWebKit/537.36 (KHTML, like Gecko) Chrome/70.0.3538.77 Safari/537.36",720,70,68,75,74,"top_right","top_left",773,"blue","Repeat","right",21,"Color","circle",100,0,"blue_key",1000,"color",0,0
"A1B860YTPA8W3N",1138177,1280,708,1180,"34YB12FSQZ8ABHJRAXTEXH5KB83GMR","05/11/2018@17:56:13","rvts_first","Mozilla/5.0 (Windows NT 10.0; Win64; x64) AppleWebKit/537.36 (KHTML, like Gecko) Chrome/70.0.3538.77 Safari/537.36",720,70,68,75,74,"top_right","top_left",1644,"blue","Switch","left",22,"Shape","circle",1000,0,"circle_key",100,"shape",0,1
"A1B860YTPA8W3N",1138177,1280,708,1180,"34YB12FSQZ8ABHJRAXTEXH5KB83GMR","05/11/2018@17:56:13","rvts_first","Mozilla/5.0 (Windows NT 10.0; Win64; x64) AppleWebKit/537.36 (KHTML, like Gecko) Chrome/70.0.3538.77 Safari/537.36",720,70,68,75,74,"top_right","top_left",2098,"red","Repeat","left",25,"Shape","triangle",100,0,"tri_key",1000,"shape",0,0
"A1B860YTPA8W3N",1138177,1280,708,1180,"34YB12FSQZ8ABHJRAXTEXH5KB83GMR","05/11/2018@17:56:13","rvts_first","Mozilla/5.0 (Windows NT 10.0; Win64; x64) AppleWebKit/537.36 (KHTML, like Gecko) Chrome/70.0.3538.77 Safari/537.36",720,70,68,75,74,"top_right","top_left",1609,"blue","Repeat","left",26,"Shape","circle",1000,0,"circle_key",100,"shape",0,0
"A1B860YTPA8W3N",1138177,1280,708,1180,"34YB12FSQZ8ABHJRAXTEXH5KB83GMR","05/11/2018@17:56:13","rvts_first","Mozilla/5.0 (Windows NT 10.0; Win64; x64) AppleWebKit/537.36 (KHTML, like Gecko) Chrome/70.0.3538.77 Safari/537.36",720,70,68,75,74,"top_right","top_left",4361,"red","Switch","right",27,"Color","triangle",100,0,"red_key",1000,"color",0,1
"A1B860YTPA8W3N",1138177,1280,708,1180,"34YB12FSQZ8ABHJRAXTEXH5KB83GMR","05/11/2018@17:56:13","rvts_first","Mozilla/5.0 (Windows NT 10.0; Win64; x64) AppleWebKit/537.36 (KHTML, like Gecko) Chrome/70.0.3538.77 Safari/537.36",720,70,68,75,74,"top_right","top_left",2669,"blue","Switch","left",28,"Shape","circle",100,0,"circle_key",1000,"shape",0,1
"A1B860YTPA8W3N",1138177,1280,708,1180,"34YB12FSQZ8ABHJRAXTEXH5KB83GMR","05/11/2018@17:56:13","rvts_first","Mozilla/5.0 (Windows NT 10.0; Win64; x64) AppleWebKit/537.36 (KHTML, like Gecko) Chrome/70.0.3538.77 Safari/537.36",720,70,68,75,74,"top_right","top_left",850,"red","Repeat","left",29,"Shape","circle",100,0,"circle_key",1000,"shape",0,0
"A1B860YTPA8W3N",1138177,1280,708,1180,"34YB12FSQZ8ABHJRAXTEXH5KB83GMR","05/11/2018@17:56:13","rvts_first","Mozilla/5.0 (Windows NT 10.0; Win64; x64) AppleWebKit/537.36 (KHTML, like Gecko) Chrome/70.0.3538.77 Safari/537.36",720,70,68,75,74,"top_right","top_left",4723,"blue","Repeat","left",30,"Shape","triangle",1000,0,"tri_key",100,"shape",0,0
"A1B860YTPA8W3N",1138177,1280,708,1180,"34YB12FSQZ8ABHJRAXTEXH5KB83GMR","05/11/2018@17:56:13","rvts_first","Mozilla/5.0 (Windows NT 10.0; Win64; x64) AppleWebKit/537.36 (KHTML, like Gecko) Chrome/70.0.3538.77 Safari/537.36",720,70,68,75,74,"top_right","top_left",2325,"blue","Switch","right",31,"Color","triangle",1000,0,"blue_key",100,"color",0,1
"A1B860YTPA8W3N",1138177,1280,708,1180,"34YB12FSQZ8ABHJRAXTEXH5KB83GMR","05/11/2018@17:56:13","rvts_first","Mozilla/5.0 (Windows NT 10.0; Win64; x64) AppleWebKit/537.36 (KHTML, like Gecko) Chrome/70.0.3538.77 Safari/537.36",720,70,68,75,74,"top_right","top_left",766,"blue","Repeat","left",36,"Shape","circle",100,0,"circle_key",1000,"shape",0,0
"A1B860YTPA8W3N",1138177,1280,708,1180,"34YB12FSQZ8ABHJRAXTEXH5KB83GMR","05/11/2018@17:56:13","rvts_first","Mozilla/5.0 (Windows NT 10.0; Win64; x64) AppleWebKit/537.36 (KHTML, like Gecko) Chrome/70.0.3538.77 Safari/537.36",720,70,68,75,74,"top_right","top_left",963,"red","Switch","right",37,"Color","circle",100,0,"red_key",1000,"color",0,1
"A1B860YTPA8W3N",1138177,1280,708,1180,"34YB12FSQZ8ABHJRAXTEXH5KB83GMR","05/11/2018@17:56:13","rvts_first","Mozilla/5.0 (Windows NT 10.0; Win64; x64) AppleWebKit/537.36 (KHTML, like Gecko) Chrome/70.0.3538.77 Safari/537.36",720,70,68,75,74,"top_right","top_left",4465,"blue","Switch","left",38,"Shape","circle",1000,0,"circle_key",100,"shape",0,1
"A1B860YTPA8W3N",1138177,1280,708,1180,"34YB12FSQZ8ABHJRAXTEXH5KB83GMR","05/11/2018@17:56:13","rvts_first","Mozilla/5.0 (Windows NT 10.0; Win64; x64) AppleWebKit/537.36 (KHTML, like Gecko) Chrome/70.0.3538.77 Safari/537.36",720,70,68,75,74,"top_right","top_left",1130,"red","Repeat","left",39,"Shape","triangle",100,0,"tri_key",1000,"shape",0,0
"A1B860YTPA8W3N",1138177,1280,708,1180,"34YB12FSQZ8ABHJRAXTEXH5KB83GMR","05/11/2018@17:56:13","rvts_first","Mozilla/5.0 (Windows NT 10.0; Win64; x64) AppleWebKit/537.36 (KHTML, like Gecko) Chrome/70.0.3538.77 Safari/537.36",720,70,68,75,74,"top_right","top_left",1557,"blue","Switch","right",40,"Color","circle",100,0,"blue_key",1000,"color",0,1
"A1B860YTPA8W3N",1138177,1280,708,1180,"34YB12FSQZ8ABHJRAXTEXH5KB83GMR","05/11/2018@17:56:13","rvts_first","Mozilla/5.0 (Windows NT 10.0; Win64; x64) AppleWebKit/537.36 (KHTML, like Gecko) Chrome/70.0.3538.77 Safari/537.36",720,70,68,75,74,"top_right","top_left",912,"blue","Switch","left",41,"Shape","triangle",100,0,"tri_key",1000,"shape",0,1
"A1B860YTPA8W3N",1138177,1280,708,1180,"34YB12FSQZ8ABHJRAXTEXH5KB83GMR","05/11/2018@17:56:13","rvts_first","Mozilla/5.0 (Windows NT 10.0; Win64; x64) AppleWebKit/537.36 (KHTML, like Gecko) Chrome/70.0.3538.77 Safari/537.36",720,70,68,75,74,"top_right","top_left",848,"red","Switch","right",42,"Color","triangle",100,0,"red_key",1000,"color",0,1
"A1B860YTPA8W3N",1138177,1280,708,1180,"34YB12FSQZ8ABHJRAXTEXH5KB83GMR","05/11/2018@17:56:13","rvts_first","Mozilla/5.0 (Windows NT 10.0; Win64; x64) AppleWebKit/537.36 (KHTML, like Gecko) Chrome/70.0.3538.77 Safari/537.36",720,70,68,75,74,"top_right","top_left",1519,"red","Switch","left",43,"Shape","triangle",1000,0,"tri_key",100,"shape",0,1
"A1B860YTPA8W3N",1138177,1280,708,1180,"34YB12FSQZ8ABHJRAXTEXH5KB83GMR","05/11/2018@17:56:13","rvts_first","Mozilla/5.0 (Windows NT 10.0; Win64; x64) AppleWebKit/537.36 (KHTML, like Gecko) Chrome/70.0.3538.77 Safari/537.36",720,70,68,75,74,"top_right","top_left",653,"blue","Repeat","left",44,"Shape","triangle",100,0,"tri_key",1000,"shape",0,0
"A1B860YTPA8W3N",1138177,1280,708,1180,"34YB12FSQZ8ABHJRAXTEXH5KB83GMR","05/11/2018@17:56:13","rvts_first","Mozilla/5.0 (Windows NT 10.0; Win64; x64) AppleWebKit/537.36 (KHTML, like Gecko) Chrome/70.0.3538.77 Safari/537.36",720,70,68,75,74,"top_right","top_left",3828,"blue","Switch","right",45,"Color","circle",100,0,"blue_key",1000,"color",0,1
"A1B860YTPA8W3N",1138177,1280,708,1180,"34YB12FSQZ8ABHJRAXTEXH5KB83GMR","05/11/2018@17:56:13","rvts_first","Mozilla/5.0 (Windows NT 10.0; Win64; x64) AppleWebKit/537.36 (KHTML, like Gecko) Chrome/70.0.3538.77 Safari/537.36",720,70,68,75,74,"top_right","top_left",2363,"red","Switch","left",46,"Shape","triangle",100,0,"tri_key",1000,"shape",0,1
"A1B860YTPA8W3N",1138177,1280,708,1180,"34YB12FSQZ8ABHJRAXTEXH5KB83GMR","05/11/2018@17:56:13","rvts_first","Mozilla/5.0 (Windows NT 10.0; Win64; x64) AppleWebKit/537.36 (KHTML, like Gecko) Chrome/70.0.3538.77 Safari/537.36",720,70,68,75,74,"top_right","top_left",754,"blue","Repeat","right",48,"Color","circle",100,0,"blue_key",1000,"color",0,0
"A1B860YTPA8W3N",1138177,1280,708,1180,"34YB12FSQZ8ABHJRAXTEXH5KB83GMR","05/11/2018@17:56:13","rvts_first","Mozilla/5.0 (Windows NT 10.0; Win64; x64) AppleWebKit/537.36 (KHTML, like Gecko) Chrome/70.0.3538.77 Safari/537.36",720,70,68,75,74,"top_right","top_left",664,"red","Repeat","right",49,"Color","triangle",100,0,"red_key",1000,"color",0,0
"A1B860YTPA8W3N",1138177,1280,708,1180,"34YB12FSQZ8ABHJRAXTEXH5KB83GMR","05/11/2018@17:56:13","rvts_first","Mozilla/5.0 (Windows NT 10.0; Win64; x64) AppleWebKit/537.36 (KHTML, like Gecko) Chrome/70.0.3538.77 Safari/537.36",720,70,68,75,74,"top_right","top_left",1072,"red","Switch","left",50,"Shape","triangle",1000,0,"tri_key",100,"shape",0,1
